Folder: mtex/data/PoleFigure/ZnCuTi (part 2)

File: ZnCuTi_defocusing_PF_101_R.UXD
; C:\Users\Stanis³aw\OneDrive\Documents\paracamgr\DANE DO MGR\24.03.2015\tekstura\TExtura\Defokusacja\ZnCuTi_defokusacja_PF_101_R.raw(Diffrac Plus V1.01 file) converted by XCH V1.0
_FILEVERSION=2
_SITE='Poland'
_USER='Administrator'
_SAMPLE_CHANGER_CODE=0
_ATTACHMENTS_CODE=0
_GONIOMETER_RADIUS=300
_FIXED_DIVSLIT=0.600000
_FIXED_SAMPLESLIT=1.000000
_FIXED_DETSLIT=0.100000
_MONOCHROMATOR=0
; None
_THIN_FILM='N'
_BETA_FILTER='N'
_FIXED_ANTISLIT=0.600000
_ANALYZER_CODE=0
; None
_DATEMEASURED='01-Apr-2015 02:02:13'
_WL_UNIT='A'
_WL1=1.540600
_WL2=1.544390
_WL3=1.392220
_WLRATIO=0.500000
_ANODE='Cu'
; (Data for Range number 1)
_DRIVE='PHI'
_STEPTIME=11.9998
_STEPSIZE=5.000000
_STEPMODE='C'
_START=0.000000
_THETA=21.6975
_2THETA=43.395
_KHI=0.000000
_PHI=0.000000
_X=0.000000
_Y=0.000000
_Z=0.000000
_DIVERGENCE=0.200000
_ANTISCATTER=0.200000
_DETECTOR=1
; S.C.
_HV=683.5
_GAIN=80
_LLD=0.788000
_ULD=2.160000
_DETECTORSLIT='out'
_AUX1=0.000000
_AUX2=0.000000
_AUX3=0.000000
_TIMESTARTED=22
_TEMP_RATE=0.000000
_TEMP_DELAY=0.000000
_KV=40
_MA=30
_RANGE_WL=1.540600
_3DPLANE=0
_2THETACPS
   0.0000    355.51
   5.0000    356.84
  10.0000    442.01
  15.0000    375.76
  20.0000    385.01
  25.0000    424.17
  30.0000    474.34
  35.0000    534.34
  40.0000    568.26
  45.0000    429.34
  50.0000    387.59
  55.0000    366.76
  60.0000    396.01
  65.0000    425.01
  70.0000    516.43
  75.0000    504.18
  80.0000    458.42
  85.0000    395.51
  90.0000    452.34
  95.0000    394.34
 100.0000    405.51
 105.0000    415.59
 110.0000    488.84
 115.0000    426.59
 120.0000    394.26
 125.0000    396.09
 130.0000    401.34
 135.0000    427.01
 140.0000    466.76
 145.0000    370.34
 150.0000    431.92
 155.0000    357.84
 160.0000    344.09
 165.0000    359.51
 170.0000    382.09
 175.0000    406.42
 180.0000    389.26
 185.0000    432.34
 190.0000    517.68
 195.0000    545.18
 200.0000    593.76
 205.0000    594.76
 210.0000    568.68
 215.0000    467.84
 220.0000    453.76
 225.0000    448.67
 230.0000    422.42
 235.0000    422.09
 240.0000    442.92
 245.0000    413.84
 250.0000    397.09
 255.0000    352.34
 260.0000    396.51
 265.0000    347.51
 270.0000    345.51
 275.0000    339.84
 280.0000    365.51
 285.0000    365.76
 290.0000    356.67
 295.0000    354.09
 300.0000    364.17
 305.0000    326.76
 310.0000    339.26
 315.0000    323.34
 320.0000    326.92
 325.0000    332.59
 330.0000    348.01
 335.0000    313.92
 340.0000    304.92
 345.0000    350.34
 350.0000    394.76
 355.0000    377.01
; (Data for Range number 2)
_DRIVE='PHI'
_STEPTIME=11.9998
_STEPSIZE=5.000000
_STEPMODE='C'
_START=0.000000
_THETA=21.6975
_2THETA=43.395
_KHI=5.000000
_PHI=0.000000
_X=0.000000
_Y=0.000000
_Z=0.000000
_DIVERGENCE=0.200000
_ANTISCATTER=0.200000
_DETECTOR=1
; S.C.
_HV=683.5
_GAIN=80
_LLD=0.788000
_ULD=2.160000
_DETECTORSLIT='out'
_AUX1=0.000000
_AUX2=0.000000
_AUX3=0.000000
_TIMESTARTED=890
_TEMP_RATE=0.000000
_TEMP_DELAY=0.000000
_KV=40
_MA=30
_RANGE_WL=1.540600
_3DPLANE=0
_2THETACPS
   0.0000    354.34
   5.0000    342.51
  10.0000    333.59
  15.0000    339.17
  20.0000    344.34
  25.0000    370.67
  30.0000    427.84
  35.0000    380.51
  40.0000    344.59
  45.0000    354.26
  50.0000    376.84
  55.0000    341.42
  60.0000    381.67
  65.0000    379.76
  70.0000    370.59
  75.0000    397.34
  80.0000    405.09
  85.0000    374.59
  90.0000    353.01
  95.0000    353.42
 100.0000    363.59
 105.0000    344.42
 110.0000    337.76
 115.0000    404.76
 120.0000    359.67
 125.0000    344.67
 130.0000    436.34
 135.0000    458.67
 140.0000    406.42
 145.0000    428.17
 150.0000    399.01
 155.0000    420.34
 160.0000    446.51
 165.0000    338.42
 170.0000    385.76
 175.0000    393.84
 180.0000    377.67
 185.0000    359.67
 190.0000    333.26
 195.0000    402.01
 200.0000    376.09
 205.0000    385.26
 210.0000    385.92
 215.0000    470.67
 220.0000    376.34
 225.0000    482.42
 230.0000    391.92
 235.0000    364.51
 240.0000    379.26
 245.0000    370.76
 250.0000    396.17
 255.0000    355.34
 260.0000    341.59
 265.0000    318.26
 270.0000    360.59
 275.0000    371.84
 280.0000    400.59
 285.0000    326.34
 290.0000    394.34
 295.0000    406.92
 300.0000    437.09
 305.0000    315.34
 310.0000    335.67
 315.0000    353.59
 320.0000    345.09
 325.0000    355.59
 330.0000    335.34
 335.0000    361.92
 340.0000    378.09
 345.0000    297.92
 350.0000    416.09
 355.0000    349.84
; (Data for Range number 3)
_DRIVE='PHI'
_STEPTIME=11.9998
_STEPSIZE=5.000000
_STEPMODE='C'
_START=0.000000
_THETA=21.6975
_2THETA=43.395
_KHI=10
_PHI=0.000000
_X=0.000000
_Y=0.000000
_Z=0.000000
_DIVERGENCE=0.200000
_ANTISCATTER=0.200000
_DETECTOR=1
; S.C.
_HV=683.5
_GAIN=80
_LLD=0.788000
_ULD=2.160000
_DETECTORSLIT='out'
_AUX1=0.000000
_AUX2=0.000000
_AUX3=0.000000
_TIMESTARTED=1759
_TEMP_RATE=0.000000
_TEMP_DELAY=0.000000
_KV=40
_MA=30
_RANGE_WL=1.540600
_3DPLANE=0
_2THETACPS
   0.0000    391.51
   5.0000    412.01
  10.0000    461.51
  15.0000    374.92
  20.0000    373.92
  25.0000    335.42
  30.0000    376.26
  35.0000    359.51
  40.0000    409.84
  45.0000    406.84
  50.0000    359.01
  55.0000    363.42
  60.0000    347.01
  65.0000    356.26
  70.0000    406.26
  75.0000    392.67
  80.0000    382.51
  85.0000    365.34
  90.0000    399.42
  95.0000    355.26
 100.0000    326.84
 105.0000    380.67
 110.0000    370.51
 115.0000    352.51
 120.0000    371.67
 125.0000    359.59
 130.0000    431.92
 135.0000    377.76
 140.0000    388.09
 145.0000    375.92
 150.0000    367.34
 155.0000    386.67
 160.0000    422.67
 165.0000    392.17
 170.0000    367.17
 175.0000    355.67
 180.0000    372.34
 185.0000    373.09
 190.0000    415.01
 195.0000    371.84
 200.0000    432.67
 205.0000    424.84
 210.0000    459.92
 215.0000    398.34
 220.0000    376.01
 225.0000    384.26
 230.0000    391.67
 235.0000    374.42
 240.0000    394.67
 245.0000    343.92
 250.0000    349.09
 255.0000    392.84
 260.0000    345.59
 265.0000    378.01
 270.0000    328.59
 275.0000    348.34
 280.0000    318.42
 285.0000    320.59
 290.0000    350.42
 295.0000    356.34
 300.0000    318.76
 305.0000    349.51
 310.0000    365.17
 315.0000    333.26
 320.0000    339.92
 325.0000    330.67
 330.0000    306.34
 335.0000    342.42
 340.0000    350.59
 345.0000    369.59
 350.0000    340.76
 355.0000    338.92
; (Data for Range number 4)
_DRIVE='PHI'
_STEPTIME=11.9998
_STEPSIZE=5.000000
_STEPMODE='C'
_START=0.000000
_THETA=21.6975
_2THETA=43.395
_KHI=15
_PHI=0.000000
_X=0.000000
_Y=0.000000
_Z=0.000000
_DIVERGENCE=0.200000
_ANTISCATTER=0.200000
_DETECTOR=1
; S.C.
_HV=683.5
_GAIN=80
_LLD=0.788000
_ULD=2.160000
_DETECTORSLIT='out'
_AUX1=0.000000
_AUX2=0.000000
_AUX3=0.000000
_TIMESTARTED=2628
_TEMP_RATE=0.000000
_TEMP_DELAY=0.000000
_KV=40
_MA=30
_RANGE_WL=1.540600
_3DPLANE=0
_2THETACPS
   0.0000    342.76
   5.0000    357.84
  10.0000    410.76
  15.0000    379.67
  20.0000    362.42
  25.0000    395.84
  30.0000    384.09
  35.0000    329.17
  40.0000    394.51
  45.0000    396.84
  50.0000    345.01
  55.0000    378.59
  60.0000    379.09
  65.0000    389.76
  70.0000    408.34
  75.0000    372.26
  80.0000    369.84
  85.0000    333.92
  90.0000    351.01
  95.0000    371.51
 100.0000    378.34
 105.0000    377.01
 110.0000    399.84
[...]
_DIVERGENCE=0.200000
_ANTISCATTER=0.200000
_DETECTOR=1
; S.C.
_HV=683.5
_GAIN=80
_LLD=0.788000
_ULD=2.160000
_DETECTORSLIT='out'
_AUX1=0.000000
_AUX2=0.000000
_AUX3=0.000000
_TIMESTARTED=12183
_TEMP_RATE=0.000000
_TEMP_DELAY=0.000000
_KV=40
_MA=30
_RANGE_WL=1.540600
_3DPLANE=0
_2THETACPS
   0.0000    155.84
   5.0000    158.84
  10.0000    171.50
  15.0000    186.00
  20.0000    175.17
  25.0000    166.92
  30.0000    181.34
  35.0000    171.00
  40.0000    161.59
  45.0000    160.25
  50.0000    176.42
  55.0000    152.92
  60.0000    155.84
  65.0000    155.34
  70.0000    154.67
  75.0000    149.25
  80.0000    162.00
  85.0000    153.75
  90.0000    160.84
  95.0000    150.92
 100.0000    154.59
 105.0000    150.34
 110.0000    147.34
 115.0000    138.42
 120.0000    137.34
 125.0000    143.50
 130.0000    158.00
 135.0000    157.17
 140.0000    160.00
 145.0000    172.25
 150.0000    185.92
 155.0000    185.25
 160.0000    187.42
 165.0000    187.00
 170.0000    187.34
 175.0000    155.59
 180.0000    180.25
 185.0000    175.84
 190.0000    158.17
 195.0000    167.92
 200.0000    168.59
 205.0000    172.59
 210.0000    201.09
 215.0000    185.92
 220.0000    173.75
 225.0000    175.42
 230.0000    181.34
 235.0000    179.75
 240.0000    184.67
 245.0000    175.84
 250.0000    185.42
 255.0000    182.75
 260.0000    189.50
 265.0000    182.34
 270.0000    172.34
 275.0000    165.42
 280.0000    162.84
 285.0000    158.25
 290.0000    157.09
 295.0000    144.92
 300.0000    156.34
 305.0000    155.00
 310.0000    151.17
 315.0000    177.67
 320.0000    163.75
 325.0000    168.42
 330.0000    168.42
 335.0000    167.50
 340.0000    182.42
 345.0000    164.00
 350.0000    154.00
 355.0000    159.84
; (Data for Range number 16)
_DRIVE='PHI'
_STEPTIME=11.9998
_STEPSIZE=5.000000
_STEPMODE='C'
_START=0.000000
_THETA=21.6975
_2THETA=43.395
_KHI=75
_PHI=0.000000
_X=0.000000
_Y=0.000000
_Z=0.000000
_DIVERGENCE=0.200000
_ANTISCATTER=0.200000
_DETECTOR=1
; S.C.
_HV=683.5
_GAIN=80
_LLD=0.788000
_ULD=2.160000
_DETECTORSLIT='out'
_AUX1=0.000000
_AUX2=0.000000
_AUX3=0.000000
_TIMESTARTED=13051
_TEMP_RATE=0.000000
_TEMP_DELAY=0.000000
_KV=40
_MA=30
_RANGE_WL=1.540600
_3DPLANE=0
_2THETACPS
   0.0000    110.42
   5.0000    115.92
  10.0000    113.42
  15.0000    122.17
  20.0000    129.75
  25.0000    122.59
  30.0000    141.84
  35.0000    140.75
  40.0000    135.75
  45.0000    123.92
  50.0000    125.09
  55.0000    129.09
  60.0000    130.00
  65.0000    111.00
  70.0000    117.42
  75.0000    117.42
  80.0000    114.75
  85.0000    124.09
  90.0000    117.84
  95.0000    124.09
 100.0000    130.25
 105.0000    107.59
 110.0000    109.59
 115.0000    110.59
 120.0000    113.25
 125.0000    119.59
 130.0000    118.59
 135.0000    119.25
 140.0000    150.84
 145.0000    121.59
 150.0000    124.75
 155.0000    129.67
 160.0000    130.00
 165.0000    141.34
 170.0000    139.92
 175.0000    126.42
 180.0000    111.67
 185.0000    123.25
 190.0000    118.67
 195.0000    126.67
 200.0000    132.67
 205.0000    131.50
 210.0000    144.75
 215.0000    140.50
 220.0000    126.84
 225.0000    136.42
 230.0000    146.59
 235.0000    145.92
 240.0000    143.59
 245.0000    142.34
 250.0000    146.84
 255.0000    140.59
 260.0000    148.92
 265.0000    135.84
 270.0000    129.25
 275.0000    142.25
 280.0000    126.59
 285.0000    122.25
 290.0000    112.59
 295.0000    120.17
 300.0000    124.92
 305.0000    134.50
 310.0000    118.09
 315.0000    125.75
 320.0000    131.42
 325.0000    136.42
 330.0000    127.67
 335.0000    125.59
 340.0000    126.92
 345.0000    116.92
 350.0000    115.50
 355.0000    113.84

File: ZnCuTi_defocusing_PF_102_R.UXD
; C:\Users\Stanis³aw\OneDrive\Documents\paracamgr\DANE DO MGR\24.03.2015\tekstura\TExtura\Defokusacja\ZnCuTi_defokusacja_PF_102_R.raw(Diffrac Plus V1.01 file) converted by XCH V1.0
_FILEVERSION=2
_SITE='Poland'
_USER='Administrator'
_SAMPLE_CHANGER_CODE=0
_ATTACHMENTS_CODE=0
_GONIOMETER_RADIUS=300
_FIXED_DIVSLIT=0.600000
_FIXED_SAMPLESLIT=1.000000
_FIXED_DETSLIT=0.100000
_MONOCHROMATOR=0
; None
_THIN_FILM='N'
_BETA_FILTER='N'
_FIXED_ANTISLIT=0.600000
_ANALYZER_CODE=0
; None
_DATEMEASURED='01-Apr-2015 05:54:09'
_WL_UNIT='A'
_WL1=1.540600
_WL2=1.544390
_WL3=1.392220
_WLRATIO=0.500000
_ANODE='Cu'
; (Data for Range number 1)
_DRIVE='PHI'
_STEPTIME=11.9998
_STEPSIZE=5.000000
_STEPMODE='C'
_START=0.000000
_THETA=27.283
_2THETA=54.566
_KHI=0.000000
_PHI=0.000000
_X=0.000000
_Y=0.000000
_Z=0.000000
_DIVERGENCE=0.200000
_ANTISCATTER=0.200000
_DETECTOR=1
; S.C.
_HV=683.5
_GAIN=80
_LLD=0.788000
_ULD=2.160000
_DETECTORSLIT='out'
_AUX1=0.000000
_AUX2=0.000000
_AUX3=0.000000
_TIMESTARTED=22
_TEMP_RATE=0.000000
_TEMP_DELAY=0.000000
_KV=40
_MA=30
_RANGE_WL=1.540600
_3DPLANE=0
_2THETACPS
   0.0000    158.67
   5.0000    159.92
  10.0000    163.84
  15.0000    157.42
  20.0000    159.17
  25.0000    168.42
  30.0000    174.75
  35.0000    176.42
  40.0000    201.00
  45.0000    174.59
  50.0000    172.75
  55.0000    172.84
  60.0000    165.50
  65.0000    157.50
  70.0000    155.50
  75.0000    154.50
  80.0000    168.00
  85.0000    172.00
  90.0000    153.34
  95.0000    166.92
 100.0000    160.59
 105.0000    167.00
 110.0000    183.84
 115.0000    183.84
 120.0000    187.50
 125.0000    181.67
 130.0000    180.25
 135.0000    179.34
 140.0000    173.42
 145.0000    173.59
 150.0000    178.17
 155.0000    173.00
 160.0000    181.34
 165.0000    170.84
 170.0000    174.34
 175.0000    167.09
 180.0000    161.09
 185.0000    163.34
 190.0000    159.67
 195.0000    159.75
 200.0000    169.09
 205.0000    173.67
 210.0000    188.92
 215.0000    176.67
 220.0000    168.17
 225.0000    162.17
 230.0000    160.42
 235.0000    160.34
 240.0000    161.59
 245.0000    152.25
 250.0000    147.67
 255.0000    152.50
 260.0000    155.17
 265.0000    149.75
 270.0000    149.17
 275.0000    157.17
 280.0000    154.50
 285.0000    152.00
 290.0000    152.67
 295.0000    157.25
 300.0000    164.34
 305.0000    169.34
 310.0000    172.09
 315.0000    154.59
 320.0000    153.84
 325.0000    151.34
 330.0000    147.84
 335.0000    153.67
 340.0000    149.92
 345.0000    154.92
 350.0000    149.09
 355.0000    161.34
; (Data for Range number 2)
_DRIVE='PHI'
_STEPTIME=11.9998
_STEPSIZE=5.000000
_STEPMODE='C'
_START=0.000000
_THETA=27.283
_2THETA=54.566
_KHI=5.000000
_PHI=0.000000
_X=0.000000
_Y=0.000000
_Z=0.000000
_DIVERGENCE=0.200000
_ANTISCATTER=0.200000
_DETECTOR=1
; S.C.
_HV=683.5
_GAIN=80
_LLD=0.788000
_ULD=2.160000
_DETECTORSLIT='out'
_AUX1=0.000000
_AUX2=0.000000
_AUX3=0.000000
_TIMESTARTED=890
_TEMP_RATE=0.000000
_TEMP_DELAY=0.000000
_KV=40
_MA=30
_RANGE_WL=1.540600
_3DPLANE=0
_2THETACPS
   0.0000    153.42
   5.0000    162.09
  10.0000    172.67
  15.0000    202.75
  20.0000    180.92
  25.0000    162.67
  30.0000    166.92
  35.0000    155.09
  40.0000    156.50
  45.0000    158.17
  50.0000    161.09
  55.0000    163.67
  60.0000    159.59
  65.0000    167.59
  70.0000    157.75
  75.0000    163.25
  80.0000    166.50
  85.0000    168.84
  90.0000    191.17
  95.0000    171.25
 100.0000    173.50
 105.0000    176.84
 110.0000    170.75
 115.0000    182.59
 120.0000    170.17
 125.0000    186.42
 130.0000    180.42
 135.0000    180.17
 140.0000    195.84
 145.0000    181.75
 150.0000    205.50
 155.0000    192.00
 160.0000    179.00
 165.0000    183.09
 170.0000    174.84
 175.0000    194.92
 180.0000    218.00
 185.0000    185.17
 190.0000    178.59
 195.0000    178.92
 200.0000    179.59
 205.0000    173.09
 210.0000    176.67
 215.0000    179.75
 220.0000    166.59
 225.0000    159.00
 230.0000    171.67
 235.0000    160.42
 240.0000    157.75
 245.0000    174.09
 250.0000    168.84
 255.0000    150.00
 260.0000    144.59
 265.0000    151.09
 270.0000    147.25
 275.0000    156.59
 280.0000    162.34
 285.0000    155.09
 290.0000    148.50
 295.0000    155.84
 300.0000    172.34
 305.0000    177.34
 310.0000    157.92
 315.0000    155.00
 320.0000    152.84
 325.0000    154.59
 330.0000    164.75
 335.0000    156.50
 340.0000    156.84
 345.0000    159.34
 350.0000    162.25
 355.0000    165.00
; (Data for Range number 3)
_DRIVE='PHI'
_STEPTIME=11.9998
_STEPSIZE=5.000000
_STEPMODE='C'
_START=0.000000
_THETA=27.283
_2THETA=54.566
_KHI=10
_PHI=0.000000
_X=0.000000
_Y=0.000000
_Z=0.000000
_DIVERGENCE=0.200000
_ANTISCATTER=0.200000
_DETECTOR=1
; S.C.
_HV=683.5
_GAIN=80
_LLD=0.788000
_ULD=2.160000
_DETECTORSLIT='out'
_AUX1=0.000000
_AUX2=0.000000
_AUX3=0.000000
_TIMESTARTED=1759
_TEMP_RATE=0.000000
_TEMP_DELAY=0.000000
_KV=40
_MA=30
_RANGE_WL=1.540600
_3DPLANE=0
_2THETACPS
   0.0000    178.50
   5.0000    162.50
  10.0000    173.00
  15.0000    161.84
  20.0000    170.34
  25.0000    165.84
  30.0000    165.00
  35.0000    158.67
  40.0000    161.92
  45.0000    161.84
  50.0000    161.00
  55.0000    156.09
  60.0000    164.59
  65.0000    171.34
  70.0000    164.75
  75.0000    160.92
  80.0000    162.25
  85.0000    164.42
  90.0000    179.50
  95.0000    162.50
 100.0000    158.59
 105.0000    187.50
 110.0000    171.75
 115.0000    192.67
 120.0000    169.42
 125.0000    196.34
 130.0000    176.75
 135.0000    180.42
 140.0000    180.25
 145.0000    179.09
 150.0000    183.09
 155.0000    189.42
 160.0000    201.75
 165.0000    170.92
 170.0000    180.34
 175.0000    193.50
 180.0000    180.84
 185.0000    180.59
 190.0000    173.67
 195.0000    177.50
 200.0000    169.59
 205.0000    180.00
 210.0000    173.59
 215.0000    169.17
 220.0000    164.42
 225.0000    170.34
 230.0000    162.92
 235.0000    166.34
 240.0000    164.34
 245.0000    156.75
 250.0000    163.75
 255.0000    164.59
 260.0000    152.50
 265.0000    143.92
 270.0000    141.75
 275.0000    145.75
 280.0000    149.75
 285.0000    153.50
 290.0000    149.84
 295.0000    163.25
 300.0000    160.00
 305.0000    157.42
 310.0000    164.09
 315.0000    168.34
 320.0000    160.67
 325.0000    170.42
 330.0000    160.75
 335.0000    174.25
 340.0000    161.59
 345.0000    177.59
 350.0000    181.09
 355.0000    173.50
; (Data for Range number 4)
_DRIVE='PHI'
_STEPTIME=11.9998
_STEPSIZE=5.000000
_STEPMODE='C'
_START=0.000000
_THETA=27.283
_2THETA=54.566
_KHI=15
_PHI=0.000000
_X=0.000000
_Y=0.000000
_Z=0.000000
_DIVERGENCE=0.200000
_ANTISCATTER=0.200000
_DETECTOR=1
; S.C.
_HV=683.5
_GAIN=80
_LLD=0.788000
_ULD=2.160000
_DETECTORSLIT='out'
_AUX1=0.000000
_AUX2=0.000000
_AUX3=0.000000
_TIMESTARTED=2627
_TEMP_RATE=0.000000
_TEMP_DELAY=0.000000
_KV=40
_MA=30
_RANGE_WL=1.540600
_3DPLANE=0
_2THETACPS
   0.0000    162.34
   5.0000    184.59
  10.0000    162.17
  15.0000    166.17
  20.0000    169.09
  25.0000    160.42
  30.0000    167.75
  35.0000    164.09
  40.0000    156.17
  45.0000    153.17
  50.0000    162.67
  55.0000    175.34
  60.0000    164.34
  65.0000    163.17
  70.0000    155.00
  75.0000    157.50
  80.0000    156.09
  85.0000    161.84
  90.0000    154.34
  95.0000    164.09
 100.0000    162.67
 105.0000    166.59
 110.0000    171.00
[...]
_Z=0.000000
_DIVERGENCE=0.200000
_ANTISCATTER=0.200000
_DETECTOR=1
; S.C.
_HV=683.5
_GAIN=80
_LLD=0.788000
_ULD=2.160000
_DETECTORSLIT='out'
_AUX1=0.000000
_AUX2=0.000000
_AUX3=0.000000
_TIMESTARTED=12183
_TEMP_RATE=0.000000
_TEMP_DELAY=0.000000
_KV=40
_MA=30
_RANGE_WL=1.540600
_3DPLANE=0
_2THETACPS
   0.0000    104.42
   5.0000    105.25
  10.0000    118.09
  15.0000    118.00
  20.0000    122.25
  25.0000    119.09
  30.0000    111.75
  35.0000    106.34
  40.0000    111.59
  45.0000    107.67
  50.0000    108.92
  55.0000    109.17
  60.0000    101.00
  65.0000    102.59
  70.0000    96.835
  75.0000    107.50
  80.0000    111.59
  85.0000    104.67
  90.0000    107.00
  95.0000    98.168
 100.0000    103.09
 105.0000    100.09
 110.0000    98.168
 115.0000    101.59
 120.0000    101.67
 125.0000    104.25
 130.0000    101.92
 135.0000    109.75
 140.0000    114.50
 145.0000    110.25
 150.0000    121.50
 155.0000    125.00
 160.0000    125.42
 165.0000    116.34
 170.0000    115.09
 175.0000    113.59
 180.0000    105.75
 185.0000    108.84
 190.0000    111.92
 195.0000    116.09
 200.0000    120.25
 205.0000    118.09
 210.0000    113.59
 215.0000    109.92
 220.0000    113.25
 225.0000    116.34
 230.0000    120.75
 235.0000    123.75
 240.0000    113.50
 245.0000    117.67
 250.0000    117.00
 255.0000    120.75
 260.0000    112.84
 265.0000    110.09
 270.0000    113.09
 275.0000    105.92
 280.0000    102.50
 285.0000    104.25
 290.0000    96.835
 295.0000    98.585
 300.0000    103.67
 305.0000    109.92
 310.0000    109.50
 315.0000    117.25
 320.0000    113.34
 325.0000    118.42
 330.0000    109.75
 335.0000    115.42
 340.0000    118.50
 345.0000    114.75
 350.0000    107.09
 355.0000    111.17
; (Data for Range number 16)
_DRIVE='PHI'
_STEPTIME=11.9998
_STEPSIZE=5.000000
_STEPMODE='C'
_START=0.000000
_THETA=27.283
_2THETA=54.566
_KHI=75
_PHI=0.000000
_X=0.000000
_Y=0.000000
_Z=0.000000
_DIVERGENCE=0.200000
_ANTISCATTER=0.200000
_DETECTOR=1
; S.C.
_HV=683.5
_GAIN=80
_LLD=0.788000
_ULD=2.160000
_DETECTORSLIT='out'
_AUX1=0.000000
_AUX2=0.000000
_AUX3=0.000000
_TIMESTARTED=13051
_TEMP_RATE=0.000000
_TEMP_DELAY=0.000000
_KV=40
_MA=30
_RANGE_WL=1.540600
_3DPLANE=0
_2THETACPS
   0.0000    82.251
   5.0000    87.835
  10.0000    89.918
  15.0000    92.585
  20.0000    95.002
  25.0000    97.335
  30.0000    93.585
  35.0000    87.835
  40.0000    92.335
  45.0000    89.668
  50.0000    93.335
  55.0000    83.668
  60.0000    88.001
  65.0000    77.751
  70.0000    77.668
  75.0000    82.835
  80.0000    86.751
  85.0000    87.418
  90.0000    92.752
  95.0000    90.418
 100.0000    82.668
 105.0000    79.918
 110.0000    82.001
 115.0000    76.751
 120.0000    85.751
 125.0000    83.501
 130.0000    84.001
 135.0000    88.085
 140.0000    91.418
 145.0000    97.168
 150.0000    97.418
 155.0000    99.418
 160.0000    99.168
 165.0000    100.84
 170.0000    96.668
 175.0000    93.668
 180.0000    82.001
 185.0000    82.585
 190.0000    88.335
 195.0000    98.668
 200.0000    95.918
 205.0000    97.335
 210.0000    91.585
 215.0000    86.085
 220.0000    95.168
 225.0000    93.335
 230.0000    96.002
 235.0000    97.335
 240.0000    97.835
 245.0000    99.585
 250.0000    95.502
 255.0000    99.752
 260.0000    98.168
 265.0000    90.418
 270.0000    86.085
 275.0000    89.501
 280.0000    84.085
 285.0000    84.751
 290.0000    81.418
 295.0000    80.918
 300.0000    82.251
 305.0000    86.751
 310.0000    91.002
 315.0000    89.335
 320.0000    89.335
 325.0000    88.335
 330.0000    89.085
 335.0000    94.085
 340.0000    92.668
 345.0000    93.002
 350.0000    82.585
 355.0000    83.335