Folder: mtex/data/PoleFigure/ZnCuTi

Note: README.txt
MTEX - MATLAB toolbox for quantitative texture analysis

Overview
--------

MTEX is a MATLAB toolbox containing the following features

- Analyze and visualize crystallographic geometries
- Calculate with model ODFs
- Import, analyze and visualize arbitrary diffraction data
- Import, analyze and visualize arbitrary individuell orientation mesurements (EBSD)
- Grain and missorientation analysis
- Recover orientation density functions (ODFs)
- Calculate texture characteristics
- Create publication ready plots
- Writting scripts to process many data sets

For an introduction, please have a look at the help first. If the
toolbox is installed the help can be found in the MATLAB help window
which can be opend by typing 'doc mtex'.
For installation instructions, you can also refer to the file INSTALL
in this directory.

Directory structure
-------------------
AUTHORS		      information about the authors of MTEX
c (dir)         source code for core library routines
ChangeLog	      a short version history
COPYING		      information about redistributing MTEX
data (dir)      some sample data sets
examples (dir)  simple examples for using MTEX
geometry (dir)  geometry tools
help (dir)	    user and developer documentation
info.xml        used by MATLAB
istall_mtex     install MTEX for permanent use
INSTALL         installation instructions
MAKEFILE        contains the compiling options !! to be edited by the advanced user !!
mtex_settings   contains the configuration of MTEX !! to be edited by the user !!
qta (dir)       core scripts for working with ODFs, EBSD data, and PDFs
templates (dir) template file for importing EBSD and pole figure data
README          this file
startup.m       initialization routine automticaly called by MATLAB if the
                toolbox is contained in the search path of MATLAB
startup_mtex    initialization routine for MTEX - to be called at the
                beginning of each MTEX session
tests (dir)     some self tests
tools           auxiliary tools
unistall_mtex   remove MTEX from the search path (permanently)


Feedback
--------
Your comments are welcome! MTEX is heavily developed and may not be
as robust or well documented as it should be. Please keep track of bugs or
missing/confusing instructions and report them to

  Dr. Ralf Hielscher <Ralf.Hielscher@gmail.com,Ralf.Hielscher@gmail.com>
  TU Chemnitz
  Fakultät für Mathematik
  Reichenhainer Str.39, Zimmer 710
  D-09107 Chemnitz, GERMANY

  personal homepage: http://www-user.tu-chemnitz.de/~rahi/

  MTEX Homepage: http://code.google.com/p/mtex/

If you find MTEX useful, we would be delighted to hear about what application you are using MTEX for!

Legal Information & Credits
---------------------------
Copyright (C) 2005-2010 Ralf Hielscher & Florian Bachmann

This software was written by Ralf Hielscher and Florian Bachmann.
It was developed at the Institute of Geoinformatics,
Freiberg University of Technology.

MTEX is free software. You can redistribute it and/or mo

File: ZnCuTi_defocusing_PF_002_R.UXD
; C:\Users\Stanis³aw\OneDrive\Documents\paracamgr\DANE DO MGR\24.03.2015\tekstura\TExtura\Defokusacja\ZnCuTi_defokusacja_PF_002_R.raw(Diffrac Plus V1.01 file) converted by XCH V1.0
_FILEVERSION=2
_SITE='Poland'
_USER='Administrator'
_SAMPLE_CHANGER_CODE=0
_ATTACHMENTS_CODE=0
_GONIOMETER_RADIUS=300
_FIXED_DIVSLIT=0.600000
_FIXED_SAMPLESLIT=1.000000
_FIXED_DETSLIT=0.100000
_MONOCHROMATOR=0
; None
_THIN_FILM='N'
_BETA_FILTER='N'
_FIXED_ANTISLIT=0.600000
_ANALYZER_CODE=0
; None
_DATEMEASURED='31-Mar-2015 18:18:20'
_WL_UNIT='A'
_WL1=1.540600
_WL2=1.544390
_WL3=1.392220
_WLRATIO=0.500000
_ANODE='Cu'
; (Data for Range number 1)
_DRIVE='PHI'
_STEPTIME=11.9998
_STEPSIZE=5.000000
_STEPMODE='C'
_START=0.000000
_THETA=18.27
_2THETA=36.54
_KHI=0.000000
_PHI=0.000000
_X=0.000000
_Y=0.000000
_Z=0.000000
_DIVERGENCE=0.200000
_ANTISCATTER=0.200000
_DETECTOR=1
; S.C.
_HV=683.5
_GAIN=80
_LLD=0.788000
_ULD=2.160000
_DETECTORSLIT='out'
_AUX1=0.000000
_AUX2=0.000000
_AUX3=0.000000
_TIMESTARTED=22
_TEMP_RATE=0.000000
_TEMP_DELAY=0.000000
_KV=40
_MA=30
_RANGE_WL=1.540600
_3DPLANE=0
_2THETACPS
   0.0000    234.75
   5.0000    242.92
  10.0000    253.25
  15.0000    250.84
  20.0000    211.75
  25.0000    243.34
  30.0000    237.59
  35.0000    228.84
  40.0000    249.84
  45.0000    248.09
  50.0000    227.67
  55.0000    243.09
  60.0000    229.25
  65.0000    232.59
  70.0000    221.84
  75.0000    219.42
  80.0000    230.92
  85.0000    220.34
  90.0000    229.59
  95.0000    260.59
 100.0000    252.42
 105.0000    231.92
 110.0000    247.42
 115.0000    245.75
 120.0000    232.00
 125.0000    227.25
 130.0000    226.50
 135.0000    222.84
 140.0000    208.59
 145.0000    206.25
 150.0000    215.00
 155.0000    194.84
 160.0000    195.50
 165.0000    207.17
 170.0000    200.75
 175.0000    198.92
 180.0000    208.92
 185.0000    205.75
 190.0000    234.00
 195.0000    228.84
 200.0000    227.09
 205.0000    234.17
 210.0000    226.17
 215.0000    240.09
 220.0000    246.50
 225.0000    261.25
 230.0000    230.00
 235.0000    225.09
 240.0000    229.67
 245.0000    228.34
 250.0000    240.09
 255.0000    227.17
 260.0000    225.00
 265.0000    199.92
 270.0000    202.75
 275.0000    207.75
 280.0000    200.25
 285.0000    192.84
 290.0000    192.50
 295.0000    190.59
 300.0000    185.17
 305.0000    186.67
 310.0000    182.25
 315.0000    188.67
 320.0000    183.67
 325.0000    199.34
 330.0000    210.17
 335.0000    193.75
 340.0000    224.25
 345.0000    249.00
 350.0000    242.67
 355.0000    258.00
; (Data for Range number 2)
_DRIVE='PHI'
_STEPTIME=11.9998
_STEPSIZE=5.000000
_STEPMODE='C'
_START=0.000000
_THETA=18.27
_2THETA=36.54
_KHI=5.000000
_PHI=0.000000
_X=0.000000
_Y=0.000000
_Z=0.000000
_DIVERGENCE=0.200000
_ANTISCATTER=0.200000
_DETECTOR=1
; S.C.
_HV=683.5
_GAIN=80
_LLD=0.788000
_ULD=2.160000
_DETECTORSLIT='out'
_AUX1=0.000000
_AUX2=0.000000
_AUX3=0.000000
_TIMESTARTED=891
_TEMP_RATE=0.000000
_TEMP_DELAY=0.000000
_KV=40
_MA=30
_RANGE_WL=1.540600
_3DPLANE=0
_2THETACPS
   0.0000    229.34
   5.0000    275.25
  10.0000    215.34
  15.0000    264.92
  20.0000    295.84
  25.0000    244.42
  30.0000    227.09
  35.0000    222.92
  40.0000    217.00
  45.0000    213.09
  50.0000    236.84
  55.0000    215.25
  60.0000    249.50
  65.0000    219.50
  70.0000    345.09
  75.0000    234.25
  80.0000    231.84
  85.0000    368.76
  90.0000    349.34
  95.0000    235.25
 100.0000    317.67
 105.0000    247.09
 110.0000    228.59
 115.0000    219.92
 120.0000    241.00
 125.0000    243.59
 130.0000    221.50
 135.0000    229.09
 140.0000    236.75
 145.0000    242.00
 150.0000    239.42
 155.0000    229.59
 160.0000    224.00
 165.0000    221.25
 170.0000    213.50
 175.0000    205.09
 180.0000    197.59
 185.0000    213.67
 190.0000    232.67
 195.0000    249.00
 200.0000    226.67
 205.0000    235.34
 210.0000    241.67
 215.0000    235.25
 220.0000    224.92
 225.0000    226.25
 230.0000    239.59
 235.0000    235.59
 240.0000    302.17
 245.0000    254.75
 250.0000    217.67
 255.0000    213.00
 260.0000    232.75
 265.0000    219.92
 270.0000    213.42
 275.0000    215.67
 280.0000    223.67
 285.0000    260.00
 290.0000    227.67
 295.0000    204.75
 300.0000    205.42
 305.0000    207.75
 310.0000    186.59
 315.0000    198.59
 320.0000    201.17
 325.0000    203.67
 330.0000    215.67
 335.0000    189.75
 340.0000    246.00
 345.0000    221.50
 350.0000    227.17
 355.0000    209.42
; (Data for Range number 3)
_DRIVE='PHI'
_STEPTIME=11.9998
_STEPSIZE=5.000000
_STEPMODE='C'
_START=0.000000
_THETA=18.27
_2THETA=36.54
_KHI=10
_PHI=0.000000
_X=0.000000
_Y=0.000000
_Z=0.000000
_DIVERGENCE=0.200000
_ANTISCATTER=0.200000
_DETECTOR=1
; S.C.
_HV=683.5
_GAIN=80
_LLD=0.788000
_ULD=2.160000
_DETECTORSLIT='out'
_AUX1=0.000000
_AUX2=0.000000
_AUX3=0.000000
_TIMESTARTED=1760
_TEMP_RATE=0.000000
_TEMP_DELAY=0.000000
_KV=40
_MA=30
_RANGE_WL=1.540600
_3DPLANE=0
_2THETACPS
   0.0000    227.75
   5.0000    219.84
  10.0000    227.92
  15.0000    224.59
  20.0000    231.75
  25.0000    240.25
  30.0000    222.67
  35.0000    223.09
  40.0000    235.00
  45.0000    216.17
  50.0000    251.00
  55.0000    236.84
  60.0000    218.84
  65.0000    219.75
  70.0000    259.00
  75.0000    228.17
  80.0000    224.09
  85.0000    222.09
  90.0000    236.84
  95.0000    238.25
 100.0000    225.84
 105.0000    243.09
 110.0000    231.84
 115.0000    216.92
 120.0000    234.09
 125.0000    219.59
 130.0000    242.34
 135.0000    221.59
 140.0000    224.92
 145.0000    295.17
 150.0000    216.34
 155.0000    283.59
 160.0000    231.50
 165.0000    210.59
 170.0000    212.50
 175.0000    242.00
 180.0000    230.59
 185.0000    214.09
 190.0000    215.34
 195.0000    229.50
 200.0000    225.17
 205.0000    253.42
 210.0000    220.92
 215.0000    256.75
 220.0000    224.25
 225.0000    314.42
 230.0000    278.84
 235.0000    230.09
 240.0000    287.17
 245.0000    252.42
 250.0000    239.92
 255.0000    255.25
 260.0000    242.42
 265.0000    292.59
 270.0000    233.42
 275.0000    206.00
 280.0000    212.59
 285.0000    201.42
 290.0000    246.92
 295.0000    214.59
 300.0000    190.25
 305.0000    199.09
 310.0000    190.59
 315.0000    199.59
 320.0000    218.17
 325.0000    210.25
 330.0000    210.34
 335.0000    213.92
 340.0000    200.17
 345.0000    211.92
 350.0000    233.75
 355.0000    206.17
; (Data for Range number 4)
_DRIVE='PHI'
_STEPTIME=11.9998
_STEPSIZE=5.000000
_STEPMODE='C'
_START=0.000000
_THETA=18.27
_2THETA=36.54
_KHI=15
_PHI=0.000000
_X=0.000000
_Y=0.000000
_Z=0.000000
_DIVERGENCE=0.200000
_ANTISCATTER=0.200000
_DETECTOR=1
; S.C.
_HV=683.5
_GAIN=80
_LLD=0.788000
_ULD=2.160000
_DETECTORSLIT='out'
_AUX1=0.000000
_AUX2=0.000000
_AUX3=0.000000
_TIMESTARTED=2628
_TEMP_RATE=0.000000
_TEMP_DELAY=0.000000
_KV=40
_MA=30
_RANGE_WL=1.540600
_3DPLANE=0
_2THETACPS
   0.0000    206.59
   5.0000    237.75
  10.0000    229.75
  15.0000    234.34
  20.0000    238.67
  25.0000    231.09
  30.0000    227.34
  35.0000    234.84
  40.0000    223.00
  45.0000    245.75
  50.0000    230.42
  55.0000    217.67
  60.0000    218.34
  65.0000    226.75
  70.0000    228.17
  75.0000    229.67
  80.0000    240.00
  85.0000    238.42
  90.0000    314.76
  95.0000    228.59
 100.0000    219.34
 105.0000    221.67
 110.0000    242.09
[...]
_Z=0.000000
_DIVERGENCE=0.200000
_ANTISCATTER=0.200000
_DETECTOR=1
; S.C.
_HV=683.5
_GAIN=80
_LLD=0.788000
_ULD=2.160000
_DETECTORSLIT='out'
_AUX1=0.000000
_AUX2=0.000000
_AUX3=0.000000
_TIMESTARTED=12184
_TEMP_RATE=0.000000
_TEMP_DELAY=0.000000
_KV=40
_MA=30
_RANGE_WL=1.540600
_3DPLANE=0
_2THETACPS
   0.0000    102.17
   5.0000    103.75
  10.0000    109.17
  15.0000    106.67
  20.0000    120.75
  25.0000    110.50
  30.0000    121.92
  35.0000    127.92
  40.0000    125.17
  45.0000    119.42
  50.0000    126.84
  55.0000    130.42
  60.0000    119.92
  65.0000    110.50
  70.0000    110.75
  75.0000    106.17
  80.0000    110.17
  85.0000    110.92
  90.0000    120.75
  95.0000    119.25
 100.0000    121.50
 105.0000    117.67
 110.0000    109.17
 115.0000    108.09
 120.0000    110.42
 125.0000    119.17
 130.0000    127.67
 135.0000    111.59
 140.0000    114.92
 145.0000    104.00
 150.0000    114.25
 155.0000    111.00
 160.0000    124.84
 165.0000    113.42
 170.0000    107.42
 175.0000    110.92
 180.0000    106.59
 185.0000    115.92
 190.0000    108.84
 195.0000    106.09
 200.0000    117.09
 205.0000    109.67
 210.0000    112.92
 215.0000    115.00
 220.0000    116.50
 225.0000    119.17
 230.0000    119.84
 235.0000    126.59
 240.0000    136.75
 245.0000    128.67
 250.0000    125.34
 255.0000    132.59
 260.0000    121.25
 265.0000    123.59
 270.0000    119.84
 275.0000    124.42
 280.0000    122.50
 285.0000    112.84
 290.0000    115.67
 295.0000    113.09
 300.0000    125.59
 305.0000    112.59
 310.0000    108.25
 315.0000    110.92
 320.0000    117.67
 325.0000    114.00
 330.0000    110.00
 335.0000    110.59
 340.0000    114.34
 345.0000    107.59
 350.0000    112.09
 355.0000    101.67
; (Data for Range number 16)
_DRIVE='PHI'
_STEPTIME=11.9998
_STEPSIZE=5.000000
_STEPMODE='C'
_START=0.000000
_THETA=18.27
_2THETA=36.54
_KHI=75
_PHI=0.000000
_X=0.000000
_Y=0.000000
_Z=0.000000
_DIVERGENCE=0.200000
_ANTISCATTER=0.200000
_DETECTOR=1
; S.C.
_HV=683.5
_GAIN=80
_LLD=0.788000
_ULD=2.160000
_DETECTORSLIT='out'
_AUX1=0.000000
_AUX2=0.000000
_AUX3=0.000000
_TIMESTARTED=13052
_TEMP_RATE=0.000000
_TEMP_DELAY=0.000000
_KV=40
_MA=30
_RANGE_WL=1.540600
_3DPLANE=0
_2THETACPS
   0.0000    61.334
   5.0000    64.418
  10.0000    61.584
  15.0000    62.584
  20.0000    72.418
  25.0000    85.251
  30.0000    83.835
  35.0000    90.502
  40.0000    85.168
  45.0000    86.168
  50.0000    96.918
  55.0000    97.085
  60.0000    91.085
  65.0000    86.001
  70.0000    83.918
  75.0000    75.585
  80.0000    85.335
  85.0000    95.002
  90.0000    93.585
  95.0000    99.002
 100.0000    104.25
 105.0000    88.835
 110.0000    102.34
 115.0000    89.585
 120.0000    101.75
 125.0000    93.335
 130.0000    85.585
 135.0000    80.335
 140.0000    76.501
 145.0000    71.085
 150.0000    68.168
 155.0000    76.418
 160.0000    77.918
 165.0000    73.501
 170.0000    77.585
 175.0000    70.251
 180.0000    68.501
 185.0000    66.501
 190.0000    69.418
 195.0000    81.751
 200.0000    72.918
 205.0000    70.668
 210.0000    77.918
 215.0000    81.585
 220.0000    93.335
 225.0000    85.835
 230.0000    96.752
 235.0000    106.25
 240.0000    107.34
 245.0000    100.17
 250.0000    96.585
 255.0000    105.25
 260.0000    95.002
 265.0000    95.252
 270.0000    94.085
 275.0000    101.25
 280.0000    97.252
 285.0000    90.502
 290.0000    95.335
 295.0000    82.418
 300.0000    78.168
 305.0000    91.835
 310.0000    82.251
 315.0000    88.751
 320.0000    87.251
 325.0000    74.501
 330.0000    75.085
 335.0000    73.168
 340.0000    72.251
 345.0000    63.834
 350.0000    62.918
 355.0000    65.751

File: ZnCuTi_defocusing_PF_100_R.UXD
; C:\Users\Stanis³aw\OneDrive\Documents\paracamgr\DANE DO MGR\24.03.2015\tekstura\TExtura\Defokusacja\ZnCuTi_defokusacja_PF_100_R.raw(Diffrac Plus V1.01 file) converted by XCH V1.0
_FILEVERSION=2
_SITE='Poland'
_USER='Administrator'
_SAMPLE_CHANGER_CODE=0
_ATTACHMENTS_CODE=0
_GONIOMETER_RADIUS=300
_FIXED_DIVSLIT=0.600000
_FIXED_SAMPLESLIT=1.000000
_FIXED_DETSLIT=0.100000
_MONOCHROMATOR=0
; None
_THIN_FILM='N'
_BETA_FILTER='N'
_FIXED_ANTISLIT=0.600000
_ANALYZER_CODE=0
; None
_DATEMEASURED='31-Mar-2015 22:10:17'
_WL_UNIT='A'
_WL1=1.540600
_WL2=1.544390
_WL3=1.392220
_WLRATIO=0.500000
_ANODE='Cu'
; (Data for Range number 1)
_DRIVE='PHI'
_STEPTIME=11.9998
_STEPSIZE=5.000000
_STEPMODE='C'
_START=0.000000
_THETA=19.565
_2THETA=39.13
_KHI=0.000000
_PHI=0.000000
_X=0.000000
_Y=0.000000
_Z=0.000000
_DIVERGENCE=0.200000
_ANTISCATTER=0.200000
_DETECTOR=1
; S.C.
_HV=683.5
_GAIN=80
_LLD=0.788000
_ULD=2.160000
_DETECTORSLIT='out'
_AUX1=0.000000
_AUX2=0.000000
_AUX3=0.000000
_TIMESTARTED=22
_TEMP_RATE=0.000000
_TEMP_DELAY=0.000000
_KV=40
_MA=30
_RANGE_WL=1.540600
_3DPLANE=0
_2THETACPS
   0.0000    232.34
   5.0000    233.42
  10.0000    236.59
  15.0000    229.17
  20.0000    234.75
  25.0000    262.42
  30.0000    243.92
  35.0000    288.17
  40.0000    283.34
  45.0000    259.17
  50.0000    276.59
  55.0000    280.92
  60.0000    266.25
  65.0000    312.51
  70.0000    295.92
  75.0000    312.26
  80.0000    290.34
  85.0000    295.42
  90.0000    283.84
  95.0000    292.42
 100.0000    302.84
 105.0000    303.51
 110.0000    261.67
 115.0000    263.34
 120.0000    260.34
 125.0000    259.84
 130.0000    267.42
 135.0000    241.75
 140.0000    244.75
 145.0000    275.50
 150.0000    264.75
 155.0000    233.34
 160.0000    237.42
 165.0000    242.42
 170.0000    256.25
 175.0000    286.09
 180.0000    248.00
 185.0000    277.84
 190.0000    247.09
 195.0000    240.59
 200.0000    248.67
 205.0000    254.09
 210.0000    250.42
 215.0000    263.59
 220.0000    328.09
 225.0000    338.84
 230.0000    271.92
 235.0000    265.42
 240.0000    258.34
 245.0000    253.84
 250.0000    248.42
 255.0000    271.67
 260.0000    237.34
 265.0000    256.59
 270.0000    234.84
 275.0000    236.42
 280.0000    232.67
 285.0000    228.67
 290.0000    226.50
 295.0000    206.84
 300.0000    219.00
 305.0000    203.50
 310.0000    219.92
 315.0000    205.50
 320.0000    195.50
 325.0000    211.00
 330.0000    214.75
 335.0000    227.59
 340.0000    218.84
 345.0000    238.67
 350.0000    224.92
 355.0000    222.25
; (Data for Range number 2)
_DRIVE='PHI'
_STEPTIME=11.9998
_STEPSIZE=5.000000
_STEPMODE='C'
_START=0.000000
_THETA=19.565
_2THETA=39.13
_KHI=5.000000
_PHI=0.000000
_X=0.000000
_Y=0.000000
_Z=0.000000
_DIVERGENCE=0.200000
_ANTISCATTER=0.200000
_DETECTOR=1
; S.C.
_HV=683.5
_GAIN=80
_LLD=0.788000
_ULD=2.160000
_DETECTORSLIT='out'
_AUX1=0.000000
_AUX2=0.000000
_AUX3=0.000000
_TIMESTARTED=890
_TEMP_RATE=0.000000
_TEMP_DELAY=0.000000
_KV=40
_MA=30
_RANGE_WL=1.540600
_3DPLANE=0
_2THETACPS
   0.0000    238.67
   5.0000    254.09
  10.0000    284.50
  15.0000    243.92
  20.0000    254.84
  25.0000    256.67
  30.0000    250.59
  35.0000    254.92
  40.0000    260.50
  45.0000    274.42
  50.0000    259.25
  55.0000    240.00
  60.0000    255.09
  65.0000    249.25
  70.0000    273.25
  75.0000    284.75
  80.0000    269.42
  85.0000    243.50
  90.0000    255.59
  95.0000    244.25
 100.0000    245.92
 105.0000    265.17
 110.0000    243.67
 115.0000    257.42
 120.0000    253.67
 125.0000    231.75
 130.0000    295.00
 135.0000    299.59
 140.0000    257.09
 145.0000    270.17
 150.0000    263.00
 155.0000    261.09
 160.0000    251.00
 165.0000    253.42
 170.0000    242.50
 175.0000    247.67
 180.0000    268.00
 185.0000    239.84
 190.0000    234.50
 195.0000    281.50
 200.0000    264.92
 205.0000    279.34
 210.0000    292.25
 215.0000    281.50
 220.0000    247.50
 225.0000    284.34
 230.0000    266.59
 235.0000    243.84
 240.0000    252.84
 245.0000    248.75
 250.0000    272.34
 255.0000    249.00
 260.0000    234.59
 265.0000    230.92
 270.0000    224.17
 275.0000    246.50
 280.0000    275.67
 285.0000    221.50
 290.0000    252.67
 295.0000    237.17
 300.0000    269.25
 305.0000    207.17
 310.0000    236.34
 315.0000    217.92
 320.0000    221.34
 325.0000    237.34
 330.0000    226.42
 335.0000    251.84
 340.0000    235.09
 345.0000    231.17
 350.0000    271.00
 355.0000    231.67
; (Data for Range number 3)
_DRIVE='PHI'
_STEPTIME=11.9998
_STEPSIZE=5.000000
_STEPMODE='C'
_START=0.000000
_THETA=19.565
_2THETA=39.13
_KHI=10
_PHI=0.000000
_X=0.000000
_Y=0.000000
_Z=0.000000
_DIVERGENCE=0.200000
_ANTISCATTER=0.200000
_DETECTOR=1
; S.C.
_HV=683.5
_GAIN=80
_LLD=0.788000
_ULD=2.160000
_DETECTORSLIT='out'
_AUX1=0.000000
_AUX2=0.000000
_AUX3=0.000000
_TIMESTARTED=1759
_TEMP_RATE=0.000000
_TEMP_DELAY=0.000000
_KV=40
_MA=30
_RANGE_WL=1.540600
_3DPLANE=0
_2THETACPS
   0.0000    253.67
   5.0000    255.67
  10.0000    280.84
  15.0000    245.75
  20.0000    239.67
  25.0000    241.67
  30.0000    269.00
  35.0000    251.09
  40.0000    265.09
  45.0000    281.00
  50.0000    241.34
  55.0000    250.17
  60.0000    285.17
  65.0000    260.00
  70.0000    267.34
  75.0000    248.50
  80.0000    253.50
  85.0000    263.00
  90.0000    264.17
  95.0000    249.67
 100.0000    256.92
 105.0000    270.67
 110.0000    250.34
 115.0000    247.00
 120.0000    250.59
 125.0000    240.00
 130.0000    265.59
 135.0000    239.92
 140.0000    250.50
 145.0000    275.75
 150.0000    233.34
 155.0000    250.17
 160.0000    284.25
 165.0000    281.59
 170.0000    241.50
 175.0000    247.25
 180.0000    244.92
 185.0000    252.84
 190.0000    262.92
 195.0000    259.92
 200.0000    276.25
 205.0000    313.09
 210.0000    289.50
 215.0000    264.00
 220.0000    258.00
 225.0000    268.34
 230.0000    254.92
 235.0000    237.75
 240.0000    258.75
 245.0000    252.50
 250.0000    255.67
 255.0000    256.25
 260.0000    244.00
 265.0000    252.17
 270.0000    232.34
 275.0000    222.34
 280.0000    224.67
 285.0000    229.17
 290.0000    228.42
 295.0000    225.25
 300.0000    231.34
 305.0000    242.59
 310.0000    232.34
 315.0000    244.34
 320.0000    245.59
 325.0000    226.59
 330.0000    222.59
 335.0000    232.00
 340.0000    228.17
 345.0000    241.42
 350.0000    231.42
 355.0000    243.25
; (Data for Range number 4)
_DRIVE='PHI'
_STEPTIME=11.9998
_STEPSIZE=5.000000
_STEPMODE='C'
_START=0.000000
_THETA=19.565
_2THETA=39.13
_KHI=15
_PHI=0.000000
_X=0.000000
_Y=0.000000
_Z=0.000000
_DIVERGENCE=0.200000
_ANTISCATTER=0.200000
_DETECTOR=1
; S.C.
_HV=683.5
_GAIN=80
_LLD=0.788000
_ULD=2.160000
_DETECTORSLIT='out'
_AUX1=0.000000
_AUX2=0.000000
_AUX3=0.000000
_TIMESTARTED=2628
_TEMP_RATE=0.000000
_TEMP_DELAY=0.000000
_KV=40
_MA=30
_RANGE_WL=1.540600
_3DPLANE=0
_2THETACPS
   0.0000    230.75
   5.0000    245.42
  10.0000    246.84
  15.0000    243.25
  20.0000    238.17
  25.0000    246.92
  30.0000    249.34
  35.0000    239.00
  40.0000    241.67
  45.0000    273.34
  50.0000    233.84
  55.0000    252.84
  60.0000    254.59
  65.0000    264.67
  70.0000    261.09
  75.0000    264.17
  80.0000    245.67
  85.0000    233.67
  90.0000    217.34
  95.0000    245.67
 100.0000    262.00
 105.0000    246.17
 110.0000    249.84
[...]
_Z=0.000000
_DIVERGENCE=0.200000
_ANTISCATTER=0.200000
_DETECTOR=1
; S.C.
_HV=683.5
_GAIN=80
_LLD=0.788000
_ULD=2.160000
_DETECTORSLIT='out'
_AUX1=0.000000
_AUX2=0.000000
_AUX3=0.000000
_TIMESTARTED=12183
_TEMP_RATE=0.000000
_TEMP_DELAY=0.000000
_KV=40
_MA=30
_RANGE_WL=1.540600
_3DPLANE=0
_2THETACPS
   0.0000    119.09
   5.0000    120.42
  10.0000    124.59
  15.0000    124.42
  20.0000    126.25
  25.0000    129.67
  30.0000    134.34
  35.0000    135.92
  40.0000    138.09
  45.0000    131.92
  50.0000    136.00
  55.0000    137.00
  60.0000    126.59
  65.0000    127.25
  70.0000    131.50
  75.0000    126.42
  80.0000    127.67
  85.0000    134.00
  90.0000    133.75
  95.0000    133.42
 100.0000    140.25
 105.0000    120.75
 110.0000    120.00
 115.0000    121.17
 120.0000    117.67
 125.0000    120.17
 130.0000    129.67
 135.0000    134.25
 140.0000    130.67
 145.0000    127.09
 150.0000    138.09
 155.0000    134.17
 160.0000    130.50
 165.0000    138.50
 170.0000    129.00
 175.0000    131.75
 180.0000    133.50
 185.0000    123.75
 190.0000    129.67
 195.0000    130.84
 200.0000    134.00
 205.0000    136.50
 210.0000    138.17
 215.0000    146.84
 220.0000    138.25
 225.0000    142.67
 230.0000    131.42
 235.0000    143.92
 240.0000    143.75
 245.0000    143.25
 250.0000    152.92
 255.0000    145.17
 260.0000    143.59
 265.0000    135.42
 270.0000    137.25
 275.0000    131.59
 280.0000    132.50
 285.0000    132.34
 290.0000    123.67
 295.0000    125.25
 300.0000    124.09
 305.0000    124.67
 310.0000    117.17
 315.0000    130.17
 320.0000    127.00
 325.0000    132.84
 330.0000    133.34
 335.0000    131.84
 340.0000    128.00
 345.0000    135.00
 350.0000    132.17
 355.0000    118.59
; (Data for Range number 16)
_DRIVE='PHI'
_STEPTIME=11.9998
_STEPSIZE=5.000000
_STEPMODE='C'
_START=0.000000
_THETA=19.565
_2THETA=39.13
_KHI=75
_PHI=0.000000
_X=0.000000
_Y=0.000000
_Z=0.000000
_DIVERGENCE=0.200000
_ANTISCATTER=0.200000
_DETECTOR=1
; S.C.
_HV=683.5
_GAIN=80
_LLD=0.788000
_ULD=2.160000
_DETECTORSLIT='out'
_AUX1=0.000000
_AUX2=0.000000
_AUX3=0.000000
_TIMESTARTED=13052
_TEMP_RATE=0.000000
_TEMP_DELAY=0.000000
_KV=40
_MA=30
_RANGE_WL=1.540600
_3DPLANE=0
_2THETACPS
   0.0000    80.501
   5.0000    85.001
  10.0000    80.168
  15.0000    82.668
  20.0000    92.085
  25.0000    94.502
  30.0000    110.09
  35.0000    116.84
  40.0000    108.84
  45.0000    103.50
  50.0000    99.502
  55.0000    101.34
  60.0000    106.09
  65.0000    97.418
  70.0000    97.002
  75.0000    99.752
  80.0000    99.335
  85.0000    109.67
  90.0000    101.84
  95.0000    105.92
 100.0000    108.50
 105.0000    102.00
 110.0000    92.168
 115.0000    98.335
 120.0000    97.252
 125.0000    97.502
 130.0000    97.835
 135.0000    94.252
 140.0000    92.085
 145.0000    87.668
 150.0000    91.418
 155.0000    92.252
 160.0000    96.085
 165.0000    98.418
 170.0000    101.59
 175.0000    90.668
 180.0000    80.585
 185.0000    90.752
 190.0000    86.418
 195.0000    87.085
 200.0000    96.335
 205.0000    99.252
 210.0000    99.835
 215.0000    105.75
 220.0000    99.085
 225.0000    107.34
 230.0000    111.59
 235.0000    112.00
 240.0000    110.00
 245.0000    106.42
 250.0000    112.59
 255.0000    116.92
 260.0000    112.09
 265.0000    107.84
 270.0000    107.84
 275.0000    112.00
 280.0000    110.67
 285.0000    102.67
 290.0000    97.502
 295.0000    101.75
 300.0000    96.835
 305.0000    100.75
 310.0000    93.002
 315.0000    95.752
 320.0000    96.168
 325.0000    100.09
 330.0000    103.92
 335.0000    100.09
 340.0000    99.835
 345.0000    85.918
 350.0000    86.335
 355.0000    80.501