Folder: mtex/data/PoleFigure/ZnCuTi (part 4)

File: ZnCuTi_Wal_50_5x5_PF_101_R.UXD
; C:\Users\Stanis³aw\OneDrive\Documents\paracamgr\DANE DO MGR\24.03.2015\tekstura\TExtura\Tekstura\ZnCuTi_Wal_50_5x5_PF_101_R.raw(Diffrac Plus V1.01 file) converted by XCH V1.0
_FILEVERSION=2
_SITE='Poland'
_USER='Administrator'
_SAMPLE_CHANGER_CODE=0
_ATTACHMENTS_CODE=0
_GONIOMETER_RADIUS=300
_FIXED_DIVSLIT=0.600000
_FIXED_SAMPLESLIT=1.000000
_FIXED_DETSLIT=0.100000
_MONOCHROMATOR=0
; None
_THIN_FILM='N'
_BETA_FILTER='N'
_FIXED_ANTISLIT=0.600000
_ANALYZER_CODE=0
; None
_DATEMEASURED='26-Feb-2015 02:45:12'
_WL_UNIT='A'
_WL1=1.540600
_WL2=1.544390
_WL3=1.392220
_WLRATIO=0.500000
_ANODE='Cu'
; (Data for Range number 1)
_DRIVE='PHI'
_STEPTIME=11.9998
_STEPSIZE=5.000000
_STEPMODE='C'
_START=0.000000
_THETA=21.6975
_2THETA=43.395
_KHI=0.000000
_PHI=0.000000
_X=0.000000
_Y=0.000000
_Z=0.000000
_DIVERGENCE=0.200000
_ANTISCATTER=0.200000
_DETECTOR=1
; S.C.
_HV=683.5
_GAIN=80
_LLD=0.788000
_ULD=2.160000
_DETECTORSLIT='out'
_AUX1=0.000000
_AUX2=0.000000
_AUX3=0.000000
_TIMESTARTED=22
_TEMP_RATE=0.000000
_TEMP_DELAY=0.000000
_KV=40
_MA=30
_RANGE_WL=1.540600
_3DPLANE=0
_2THETACPS
   0.0000    1024.1
   5.0000    1028.4
  10.0000    1039.4
  15.0000    1045.9
  20.0000    1071.3
  25.0000    1060.2
  30.0000    1070.2
  35.0000    1080.4
  40.0000    1055.4
  45.0000    1070.9
  50.0000    1065.7
  55.0000    1092.4
  60.0000    1079.7
  65.0000    1083.9
  70.0000    1074.4
  75.0000    1096.1
  80.0000    1072.9
  85.0000    1062.5
  90.0000    1058.4
  95.0000    1050.0
 100.0000    1051.0
 105.0000    1037.4
 110.0000    1064.9
 115.0000    1050.0
 120.0000    1024.8
 125.0000    1004.2
 130.0000    1012.5
 135.0000    1027.2
 140.0000    1017.5
 145.0000    1010.9
 150.0000    1025.6
 155.0000    1013.3
 160.0000    1031.6
 165.0000    1036.9
 170.0000    1013.9
 175.0000    1028.8
 180.0000    1020.4
 185.0000    1047.3
 190.0000    1037.7
 195.0000    1035.4
 200.0000    1030.8
 205.0000    1002.5
 210.0000    1022.7
 215.0000    1004.3
 220.0000    993.52
 225.0000    989.52
 230.0000    987.85
 235.0000    979.27
 240.0000    991.10
 245.0000    990.02
 250.0000    1010.4
 255.0000    981.77
 260.0000    994.93
 265.0000    1006.3
 270.0000    989.85
 275.0000    995.02
 280.0000    999.18
 285.0000    1010.0
 290.0000    1007.2
 295.0000    1023.8
 300.0000    989.77
 305.0000    995.52
 310.0000    1023.0
 315.0000    1027.9
 320.0000    1032.6
 325.0000    1013.2
 330.0000    1032.0
 335.0000    1025.0
 340.0000    1034.7
 345.0000    1028.3
 350.0000    1017.2
 355.0000    1020.8
; (Data for Range number 2)
_DRIVE='PHI'
_STEPTIME=11.9998
_STEPSIZE=5.000000
_STEPMODE='C'
_START=0.000000
_THETA=21.6975
_2THETA=43.395
_KHI=5.000000
_PHI=0.000000
_X=0.000000
_Y=0.000000
_Z=0.000000
_DIVERGENCE=0.200000
_ANTISCATTER=0.200000
_DETECTOR=1
; S.C.
_HV=683.5
_GAIN=80
_LLD=0.788000
_ULD=2.160000
_DETECTORSLIT='out'
_AUX1=0.000000
_AUX2=0.000000
_AUX3=0.000000
_TIMESTARTED=891
_TEMP_RATE=0.000000
_TEMP_DELAY=0.000000
_KV=40
_MA=30
_RANGE_WL=1.540600
_3DPLANE=0
_2THETACPS
   0.0000    966.10
   5.0000    977.60
  10.0000    968.52
  15.0000    969.35
  20.0000    943.93
  25.0000    980.02
  30.0000    979.85
  35.0000    982.93
  40.0000    970.77
  45.0000    993.85
  50.0000    1000.9
  55.0000    991.27
  60.0000    1014.2
  65.0000    1034.2
  70.0000    1023.4
  75.0000    1038.9
  80.0000    1074.2
  85.0000    1062.4
  90.0000    1062.2
  95.0000    1064.4
 100.0000    1048.2
 105.0000    1026.4
 110.0000    1023.6
 115.0000    1017.9
 120.0000    991.02
 125.0000    1013.4
 130.0000    1025.7
 135.0000    1019.7
 140.0000    1001.6
 145.0000    970.77
 150.0000    967.60
 155.0000    978.85
 160.0000    968.60
 165.0000    971.43
 170.0000    934.10
 175.0000    919.02
 180.0000    897.68
 185.0000    943.68
 190.0000    947.35
 195.0000    981.52
 200.0000    973.60
 205.0000    1007.6
 210.0000    1049.9
 215.0000    1050.4
 220.0000    1050.4
 225.0000    1054.2
 230.0000    1034.9
 235.0000    1024.1
 240.0000    1028.1
 245.0000    1021.4
 250.0000    1024.2
 255.0000    1010.4
 260.0000    1016.0
 265.0000    1023.5
 270.0000    1043.1
 275.0000    1047.9
 280.0000    1039.9
 285.0000    1055.1
 290.0000    1054.4
 295.0000    1024.4
 300.0000    1031.7
 305.0000    1047.7
 310.0000    1043.2
 315.0000    1054.4
 320.0000    1055.9
 325.0000    1063.7
 330.0000    1043.5
 335.0000    985.93
 340.0000    982.93
 345.0000    1000.8
 350.0000    982.43
 355.0000    974.77
; (Data for Range number 3)
_DRIVE='PHI'
_STEPTIME=11.9998
_STEPSIZE=5.000000
_STEPMODE='C'
_START=0.000000
_THETA=21.6975
_2THETA=43.395
_KHI=10
_PHI=0.000000
_X=0.000000
_Y=0.000000
_Z=0.000000
_DIVERGENCE=0.200000
_ANTISCATTER=0.200000
_DETECTOR=1
; S.C.
_HV=683.5
_GAIN=80
_LLD=0.788000
_ULD=2.160000
_DETECTORSLIT='out'
_AUX1=0.000000
_AUX2=0.000000
_AUX3=0.000000
_TIMESTARTED=1759
_TEMP_RATE=0.000000
_TEMP_DELAY=0.000000
_KV=40
_MA=30
_RANGE_WL=1.540600
_3DPLANE=0
_2THETACPS
   0.0000    858.76
   5.0000    865.68
  10.0000    894.18
  15.0000    911.10
  20.0000    904.60
  25.0000    902.68
  30.0000    891.68
  35.0000    903.77
  40.0000    937.43
  45.0000    972.93
  50.0000    991.77
  55.0000    981.85
  60.0000    998.18
  65.0000    991.02
  70.0000    991.18
  75.0000    1008.4
  80.0000    1004.0
  85.0000    1022.2
  90.0000    1048.4
  95.0000    1073.0
 100.0000    1066.7
 105.0000    1068.9
 110.0000    1022.6
 115.0000    1014.9
 120.0000    988.93
 125.0000    973.85
 130.0000    955.10
 135.0000    939.18
 140.0000    941.35
 145.0000    938.10
 150.0000    938.93
 155.0000    955.35
 160.0000    964.85
 165.0000    976.43
 170.0000    908.52
 175.0000    936.77
 180.0000    939.77
 185.0000    985.43
 190.0000    1046.2
 195.0000    1041.5
 200.0000    1060.4
 205.0000    1053.8
 210.0000    1034.9
 215.0000    1021.2
 220.0000    1038.4
 225.0000    1042.0
 230.0000    1081.9
 235.0000    1083.6
 240.0000    1170.4
 245.0000    1166.8
 250.0000    1149.2
 255.0000    1131.0
 260.0000    1101.5
 265.0000    1117.8
 270.0000    1108.9
 275.0000    1129.1
 280.0000    1099.3
 285.0000    1069.3
 290.0000    1004.0
 295.0000    1052.2
 300.0000    1107.9
 305.0000    1019.1
 310.0000    1002.2
 315.0000    996.52
 320.0000    971.77
 325.0000    942.27
 330.0000    976.43
 335.0000    968.02
 340.0000    918.60
 345.0000    884.85
 350.0000    843.01
 355.0000    866.68
; (Data for Range number 4)
_DRIVE='PHI'
_STEPTIME=11.9998
_STEPSIZE=5.000000
_STEPMODE='C'
_START=0.000000
_THETA=21.6975
_2THETA=43.395
_KHI=15
_PHI=0.000000
_X=0.000000
_Y=0.000000
_Z=0.000000
_DIVERGENCE=0.200000
_ANTISCATTER=0.200000
_DETECTOR=1
; S.C.
_HV=683.5
_GAIN=80
_LLD=0.788000
_ULD=2.160000
_DETECTORSLIT='out'
_AUX1=0.000000
_AUX2=0.000000
_AUX3=0.000000
_TIMESTARTED=2628
_TEMP_RATE=0.000000
_TEMP_DELAY=0.000000
_KV=40
_MA=30
_RANGE_WL=1.540600
_3DPLANE=0
_2THETACPS
   0.0000    835.18
   5.0000    832.93
  10.0000    829.93
  15.0000    839.18
  20.0000    813.68
  25.0000    801.93
  30.0000    885.68
  35.0000    936.18
  40.0000    939.68
  45.0000    951.18
  50.0000    971.60
  55.0000    970.77
  60.0000    989.93
  65.0000    1013.4
  70.0000    1029.6
  75.0000    1041.3
  80.0000    1039.9
  85.0000    1074.6
  90.0000    1055.7
  95.0000    1055.9
 100.0000    1095.9
 105.0000    1137.1
 110.0000    1117.2
[...]
_DIVERGENCE=0.200000
_ANTISCATTER=0.200000
_DETECTOR=1
; S.C.
_HV=683.5
_GAIN=80
_LLD=0.788000
_ULD=2.160000
_DETECTORSLIT='out'
_AUX1=0.000000
_AUX2=0.000000
_AUX3=0.000000
_TIMESTARTED=12183
_TEMP_RATE=0.000000
_TEMP_DELAY=0.000000
_KV=40
_MA=30
_RANGE_WL=1.540600
_3DPLANE=0
_2THETACPS
   0.0000    378.59
   5.0000    418.92
  10.0000    420.01
  15.0000    432.59
  20.0000    424.84
  25.0000    408.17
  30.0000    399.01
  35.0000    415.51
  40.0000    396.76
  45.0000    364.92
  50.0000    339.92
  55.0000    343.59
  60.0000    382.51
  65.0000    435.34
  70.0000    407.92
  75.0000    352.92
  80.0000    345.67
  85.0000    363.17
  90.0000    389.92
  95.0000    429.42
 100.0000    442.92
 105.0000    514.68
 110.0000    465.92
 115.0000    471.51
 120.0000    447.84
 125.0000    460.26
 130.0000    431.17
 135.0000    432.42
 140.0000    430.76
 145.0000    437.09
 150.0000    417.01
 155.0000    385.17
 160.0000    449.59
 165.0000    440.76
 170.0000    417.34
 175.0000    398.34
 180.0000    374.84
 185.0000    382.76
 190.0000    393.17
 195.0000    392.01
 200.0000    411.09
 205.0000    409.59
 210.0000    412.92
 215.0000    441.17
 220.0000    384.42
 225.0000    396.76
 230.0000    420.92
 235.0000    382.26
 240.0000    358.42
 245.0000    384.42
 250.0000    410.92
 255.0000    376.42
 260.0000    340.84
 265.0000    352.09
 270.0000    361.01
 275.0000    392.76
 280.0000    421.76
 285.0000    416.84
 290.0000    397.51
 295.0000    432.01
 300.0000    374.09
 305.0000    396.92
 310.0000    387.17
 315.0000    358.34
 320.0000    366.34
 325.0000    356.09
 330.0000    358.67
 335.0000    376.42
 340.0000    373.76
 345.0000    363.01
 350.0000    353.17
 355.0000    354.67
; (Data for Range number 16)
_DRIVE='PHI'
_STEPTIME=11.9998
_STEPSIZE=5.000000
_STEPMODE='C'
_START=0.000000
_THETA=21.6975
_2THETA=43.395
_KHI=75
_PHI=0.000000
_X=0.000000
_Y=0.000000
_Z=0.000000
_DIVERGENCE=0.200000
_ANTISCATTER=0.200000
_DETECTOR=1
; S.C.
_HV=683.5
_GAIN=80
_LLD=0.788000
_ULD=2.160000
_DETECTORSLIT='out'
_AUX1=0.000000
_AUX2=0.000000
_AUX3=0.000000
_TIMESTARTED=13051
_TEMP_RATE=0.000000
_TEMP_DELAY=0.000000
_KV=40
_MA=30
_RANGE_WL=1.540600
_3DPLANE=0
_2THETACPS
   0.0000    256.09
   5.0000    278.92
  10.0000    301.42
  15.0000    341.76
  20.0000    314.92
  25.0000    328.92
  30.0000    321.42
  35.0000    338.34
  40.0000    314.76
  45.0000    256.50
  50.0000    256.25
  55.0000    287.00
  60.0000    301.84
  65.0000    329.42
  70.0000    318.34
  75.0000    322.42
  80.0000    299.25
  85.0000    307.34
  90.0000    301.84
  95.0000    306.92
 100.0000    317.42
 105.0000    346.67
 110.0000    351.34
 115.0000    373.01
 120.0000    355.42
 125.0000    360.51
 130.0000    357.17
 135.0000    334.01
 140.0000    324.59
 145.0000    314.84
 150.0000    299.92
 155.0000    286.00
 160.0000    306.59
 165.0000    315.26
 170.0000    302.17
 175.0000    284.00
 180.0000    263.34
 185.0000    277.59
 190.0000    267.92
 195.0000    292.09
 200.0000    300.84
 205.0000    307.34
 210.0000    314.17
 215.0000    324.84
 220.0000    318.76
 225.0000    321.67
 230.0000    320.51
 235.0000    318.67
 240.0000    307.51
 245.0000    297.92
 250.0000    304.84
 255.0000    280.84
 260.0000    275.84
 265.0000    285.84
 270.0000    305.76
 275.0000    293.84
 280.0000    304.01
 285.0000    321.09
 290.0000    311.17
 295.0000    347.42
 300.0000    337.09
 305.0000    329.26
 310.0000    305.92
 315.0000    291.00
 320.0000    286.67
 325.0000    278.50
 330.0000    270.17
 335.0000    294.75
 340.0000    274.25
 345.0000    273.50
 350.0000    274.09
 355.0000    265.92

File: ZnCuTi_Wal_50_5x5_PF_102_R.UXD
; C:\Users\Stanis³aw\OneDrive\Documents\paracamgr\DANE DO MGR\24.03.2015\tekstura\TExtura\Tekstura\ZnCuTi_Wal_50_5x5_PF_102_R.raw(Diffrac Plus V1.01 file) converted by XCH V1.0
_FILEVERSION=2
_SITE='Poland'
_USER='Administrator'
_SAMPLE_CHANGER_CODE=0
_ATTACHMENTS_CODE=0
_GONIOMETER_RADIUS=300
_FIXED_DIVSLIT=0.600000
_FIXED_SAMPLESLIT=1.000000
_FIXED_DETSLIT=0.100000
_MONOCHROMATOR=0
; None
_THIN_FILM='N'
_BETA_FILTER='N'
_FIXED_ANTISLIT=0.600000
_ANALYZER_CODE=0
; None
_DATEMEASURED='26-Feb-2015 06:37:09'
_WL_UNIT='A'
_WL1=1.540600
_WL2=1.544390
_WL3=1.392220
_WLRATIO=0.500000
_ANODE='Cu'
; (Data for Range number 1)
_DRIVE='PHI'
_STEPTIME=11.9998
_STEPSIZE=5.000000
_STEPMODE='C'
_START=0.000000
_THETA=27.283
_2THETA=54.566
_KHI=0.000000
_PHI=0.000000
_X=0.000000
_Y=0.000000
_Z=0.000000
_DIVERGENCE=0.200000
_ANTISCATTER=0.200000
_DETECTOR=1
; S.C.
_HV=683.5
_GAIN=80
_LLD=0.788000
_ULD=2.160000
_DETECTORSLIT='out'
_AUX1=0.000000
_AUX2=0.000000
_AUX3=0.000000
_TIMESTARTED=22
_TEMP_RATE=0.000000
_TEMP_DELAY=0.000000
_KV=40
_MA=30
_RANGE_WL=1.540600
_3DPLANE=0
_2THETACPS
   0.0000    425.76
   5.0000    426.59
  10.0000    416.67
  15.0000    422.59
  20.0000    419.09
  25.0000    426.01
  30.0000    416.76
  35.0000    401.42
  40.0000    405.42
  45.0000    413.67
  50.0000    406.01
  55.0000    409.34
  60.0000    415.09
  65.0000    405.67
  70.0000    400.92
  75.0000    405.01
  80.0000    390.76
  85.0000    395.42
  90.0000    384.42
  95.0000    406.76
 100.0000    394.17
 105.0000    393.76
 110.0000    395.59
 115.0000    386.17
 120.0000    391.42
 125.0000    384.67
 130.0000    387.84
 135.0000    386.51
 140.0000    384.26
 145.0000    387.84
 150.0000    396.59
 155.0000    388.76
 160.0000    391.26
 165.0000    382.01
 170.0000    396.42
 175.0000    395.51
 180.0000    400.09
 185.0000    384.17
 190.0000    399.01
 195.0000    402.09
 200.0000    399.01
 205.0000    395.92
 210.0000    395.34
 215.0000    395.59
 220.0000    415.51
 225.0000    416.84
 230.0000    420.34
 235.0000    426.92
 240.0000    413.92
 245.0000    435.17
 250.0000    424.42
 255.0000    415.51
 260.0000    411.59
 265.0000    426.09
 270.0000    411.67
 275.0000    416.42
 280.0000    410.51
 285.0000    423.92
 290.0000    418.42
 295.0000    423.01
 300.0000    421.67
 305.0000    429.42
 310.0000    432.76
 315.0000    419.84
 320.0000    425.26
 325.0000    435.84
 330.0000    429.34
 335.0000    435.76
 340.0000    433.67
 345.0000    427.92
 350.0000    426.34
 355.0000    438.59
; (Data for Range number 2)
_DRIVE='PHI'
_STEPTIME=11.9998
_STEPSIZE=5.000000
_STEPMODE='C'
_START=0.000000
_THETA=27.283
_2THETA=54.566
_KHI=5.000000
_PHI=0.000000
_X=0.000000
_Y=0.000000
_Z=0.000000
_DIVERGENCE=0.200000
_ANTISCATTER=0.200000
_DETECTOR=1
; S.C.
_HV=683.5
_GAIN=80
_LLD=0.788000
_ULD=2.160000
_DETECTORSLIT='out'
_AUX1=0.000000
_AUX2=0.000000
_AUX3=0.000000
_TIMESTARTED=891
_TEMP_RATE=0.000000
_TEMP_DELAY=0.000000
_KV=40
_MA=30
_RANGE_WL=1.540600
_3DPLANE=0
_2THETACPS
   0.0000    442.26
   5.0000    432.84
  10.0000    430.01
  15.0000    432.51
  20.0000    412.92
  25.0000    432.09
  30.0000    423.42
  35.0000    417.09
  40.0000    425.84
  45.0000    417.01
  50.0000    409.92
  55.0000    408.17
  60.0000    411.26
  65.0000    412.59
  70.0000    400.26
  75.0000    403.76
  80.0000    405.01
  85.0000    393.67
  90.0000    385.84
  95.0000    395.84
 100.0000    398.01
 105.0000    394.67
 110.0000    384.67
 115.0000    389.59
 120.0000    383.01
 125.0000    378.42
 130.0000    377.09
 135.0000    380.26
 140.0000    375.59
 145.0000    370.92
 150.0000    389.17
 155.0000    380.34
 160.0000    392.51
 165.0000    386.51
 170.0000    394.01
 175.0000    404.51
 180.0000    414.67
 185.0000    407.26
 190.0000    404.59
 195.0000    402.01
 200.0000    404.51
 205.0000    423.09
 210.0000    422.51
 215.0000    412.59
 220.0000    407.76
 225.0000    408.76
 230.0000    416.42
 235.0000    404.51
 240.0000    415.51
 245.0000    415.09
 250.0000    406.76
 255.0000    409.51
 260.0000    409.51
 265.0000    404.59
 270.0000    396.34
 275.0000    403.51
 280.0000    401.01
 285.0000    394.26
 290.0000    413.42
 295.0000    424.34
 300.0000    417.26
 305.0000    408.92
 310.0000    417.09
 315.0000    414.59
 320.0000    431.17
 325.0000    423.76
 330.0000    447.17
 335.0000    449.01
 340.0000    435.09
 345.0000    437.01
 350.0000    433.01
 355.0000    430.51
; (Data for Range number 3)
_DRIVE='PHI'
_STEPTIME=11.9998
_STEPSIZE=5.000000
_STEPMODE='C'
_START=0.000000
_THETA=27.283
_2THETA=54.566
_KHI=10
_PHI=0.000000
_X=0.000000
_Y=0.000000
_Z=0.000000
_DIVERGENCE=0.200000
_ANTISCATTER=0.200000
_DETECTOR=1
; S.C.
_HV=683.5
_GAIN=80
_LLD=0.788000
_ULD=2.160000
_DETECTORSLIT='out'
_AUX1=0.000000
_AUX2=0.000000
_AUX3=0.000000
_TIMESTARTED=1759
_TEMP_RATE=0.000000
_TEMP_DELAY=0.000000
_KV=40
_MA=30
_RANGE_WL=1.540600
_3DPLANE=0
_2THETACPS
   0.0000    406.26
   5.0000    414.34
  10.0000    413.42
  15.0000    409.34
  20.0000    415.92
  25.0000    424.92
  30.0000    425.17
  35.0000    416.34
  40.0000    404.01
  45.0000    398.01
  50.0000    405.34
  55.0000    400.17
  60.0000    396.34
  65.0000    397.67
  70.0000    386.92
  75.0000    381.67
  80.0000    383.76
  85.0000    382.09
  90.0000    401.42
  95.0000    384.26
 100.0000    390.59
 105.0000    393.17
 110.0000    380.59
 115.0000    384.67
 120.0000    374.26
 125.0000    384.01
 130.0000    364.59
 135.0000    375.84
 140.0000    369.17
 145.0000    371.17
 150.0000    376.42
 155.0000    370.51
 160.0000    367.92
 165.0000    375.51
 170.0000    390.51
 175.0000    385.92
 180.0000    378.76
 185.0000    389.42
 190.0000    379.17
 195.0000    387.76
 200.0000    404.67
 205.0000    393.26
 210.0000    396.51
 215.0000    393.59
 220.0000    396.26
 225.0000    383.76
 230.0000    374.09
 235.0000    381.59
 240.0000    382.42
 245.0000    393.26
 250.0000    387.34
 255.0000    384.84
 260.0000    393.92
 265.0000    381.17
 270.0000    377.09
 275.0000    382.01
 280.0000    399.09
 285.0000    397.01
 290.0000    397.59
 295.0000    401.09
 300.0000    416.26
 305.0000    427.26
 310.0000    421.92
 315.0000    426.59
 320.0000    442.09
 325.0000    451.67
 330.0000    451.42
 335.0000    452.26
 340.0000    442.67
 345.0000    429.92
 350.0000    396.76
 355.0000    402.84
; (Data for Range number 4)
_DRIVE='PHI'
_STEPTIME=11.9998
_STEPSIZE=5.000000
_STEPMODE='C'
_START=0.000000
_THETA=27.283
_2THETA=54.566
_KHI=15
_PHI=0.000000
_X=0.000000
_Y=0.000000
_Z=0.000000
_DIVERGENCE=0.200000
_ANTISCATTER=0.200000
_DETECTOR=1
; S.C.
_HV=683.5
_GAIN=80
_LLD=0.788000
_ULD=2.160000
_DETECTORSLIT='out'
_AUX1=0.000000
_AUX2=0.000000
_AUX3=0.000000
_TIMESTARTED=2628
_TEMP_RATE=0.000000
_TEMP_DELAY=0.000000
_KV=40
_MA=30
_RANGE_WL=1.540600
_3DPLANE=0
_2THETACPS
   0.0000    399.26
   5.0000    399.59
  10.0000    392.51
  15.0000    391.76
  20.0000    407.59
  25.0000    408.76
  30.0000    405.76
  35.0000    404.59
  40.0000    401.51
  45.0000    385.92
  50.0000    394.01
  55.0000    387.01
  60.0000    375.51
  65.0000    384.09
  70.0000    379.26
  75.0000    382.09
  80.0000    385.09
  85.0000    391.67
  90.0000    376.76
  95.0000    377.09
 100.0000    387.67
 105.0000    372.76
 110.0000    378.01
[...]
_Z=0.000000
_DIVERGENCE=0.200000
_ANTISCATTER=0.200000
_DETECTOR=1
; S.C.
_HV=683.5
_GAIN=80
_LLD=0.788000
_ULD=2.160000
_DETECTORSLIT='out'
_AUX1=0.000000
_AUX2=0.000000
_AUX3=0.000000
_TIMESTARTED=12183
_TEMP_RATE=0.000000
_TEMP_DELAY=0.000000
_KV=40
_MA=30
_RANGE_WL=1.540600
_3DPLANE=0
_2THETACPS
   0.0000    281.42
   5.0000    286.34
  10.0000    269.17
  15.0000    263.42
  20.0000    257.92
  25.0000    260.25
  30.0000    247.34
  35.0000    235.25
  40.0000    222.25
  45.0000    221.25
  50.0000    217.17
  55.0000    207.34
  60.0000    201.75
  65.0000    213.59
  70.0000    223.42
  75.0000    219.34
  80.0000    214.75
  85.0000    219.25
  90.0000    227.25
  95.0000    229.92
 100.0000    240.67
 105.0000    250.25
 110.0000    252.59
 115.0000    262.42
 120.0000    255.09
 125.0000    270.84
 130.0000    271.84
 135.0000    268.67
 140.0000    262.17
 145.0000    254.67
 150.0000    257.75
 155.0000    263.00
 160.0000    265.50
 165.0000    269.09
 170.0000    268.34
 175.0000    262.17
 180.0000    263.09
 185.0000    271.59
 190.0000    267.25
 195.0000    278.42
 200.0000    266.59
 205.0000    260.42
 210.0000    236.92
 215.0000    237.42
 220.0000    231.75
 225.0000    229.34
 230.0000    220.67
 235.0000    221.17
 240.0000    208.92
 245.0000    210.92
 250.0000    219.09
 255.0000    218.92
 260.0000    214.50
 265.0000    216.34
 270.0000    215.75
 275.0000    221.17
 280.0000    230.67
 285.0000    239.00
 290.0000    246.75
 295.0000    253.34
 300.0000    259.17
 305.0000    260.67
 310.0000    251.09
 315.0000    255.09
 320.0000    263.17
 325.0000    253.84
 330.0000    241.75
 335.0000    249.00
 340.0000    253.67
 345.0000    265.67
 350.0000    278.75
 355.0000    284.59
; (Data for Range number 16)
_DRIVE='PHI'
_STEPTIME=11.9998
_STEPSIZE=5.000000
_STEPMODE='C'
_START=0.000000
_THETA=27.283
_2THETA=54.566
_KHI=75
_PHI=0.000000
_X=0.000000
_Y=0.000000
_Z=0.000000
_DIVERGENCE=0.200000
_ANTISCATTER=0.200000
_DETECTOR=1
; S.C.
_HV=683.5
_GAIN=80
_LLD=0.788000
_ULD=2.160000
_DETECTORSLIT='out'
_AUX1=0.000000
_AUX2=0.000000
_AUX3=0.000000
_TIMESTARTED=13052
_TEMP_RATE=0.000000
_TEMP_DELAY=0.000000
_KV=40
_MA=30
_RANGE_WL=1.540600
_3DPLANE=0
_2THETACPS
   0.0000    236.00
   5.0000    232.67
  10.0000    230.09
  15.0000    226.17
  20.0000    220.00
  25.0000    209.25
  30.0000    202.75
  35.0000    181.50
  40.0000    187.92
  45.0000    178.92
  50.0000    171.92
  55.0000    173.09
  60.0000    176.67
  65.0000    172.75
  70.0000    164.17
  75.0000    174.84
  80.0000    169.25
  85.0000    177.59
  90.0000    180.59
  95.0000    186.75
 100.0000    191.67
 105.0000    188.34
 110.0000    192.34
 115.0000    211.00
 120.0000    206.84
 125.0000    221.84
 130.0000    222.75
 135.0000    228.67
 140.0000    214.84
 145.0000    206.00
 150.0000    215.67
 155.0000    219.50
 160.0000    221.75
 165.0000    222.92
 170.0000    216.92
 175.0000    222.50
 180.0000    222.50
 185.0000    218.67
 190.0000    225.84
 195.0000    234.84
 200.0000    228.00
 205.0000    217.17
 210.0000    200.50
 215.0000    191.67
 220.0000    191.59
 225.0000    173.25
 230.0000    171.17
 235.0000    173.09
 240.0000    173.34
 245.0000    165.50
 250.0000    163.34
 255.0000    165.50
 260.0000    163.92
 265.0000    179.25
 270.0000    171.84
 275.0000    178.17
 280.0000    188.75
 285.0000    184.42
 290.0000    195.67
 295.0000    203.84
 300.0000    214.67
 305.0000    220.42
 310.0000    210.34
 315.0000    205.34
 320.0000    206.84
 325.0000    210.59
 330.0000    208.09
 335.0000    209.84
 340.0000    209.59
 345.0000    233.42
 350.0000    221.09
 355.0000    228.84