Folder: mtex/data/PoleFigure/ZnCuTi (part 3)

File: ZnCuTi_Wal_50_5x5_PF_002_R.UXD
; C:\Users\Stanis³aw\OneDrive\Documents\paracamgr\DANE DO MGR\24.03.2015\tekstura\TExtura\Tekstura\ZnCuTi_Wal_50_5x5_PF_002_R.raw(Diffrac Plus V1.01 file) converted by XCH V1.0
_FILEVERSION=2
_SITE='Poland'
_USER='Administrator'
_SAMPLE_CHANGER_CODE=0
_ATTACHMENTS_CODE=0
_GONIOMETER_RADIUS=300
_FIXED_DIVSLIT=0.600000
_FIXED_SAMPLESLIT=1.000000
_FIXED_DETSLIT=0.100000
_MONOCHROMATOR=0
; None
_THIN_FILM='N'
_BETA_FILTER='N'
_FIXED_ANTISLIT=0.600000
_ANALYZER_CODE=0
; None
_DATEMEASURED='25-Feb-2015 19:01:21'
_WL_UNIT='A'
_WL1=1.540600
_WL2=1.544390
_WL3=1.392220
_WLRATIO=0.500000
_ANODE='Cu'
; (Data for Range number 1)
_DRIVE='PHI'
_STEPTIME=11.9998
_STEPSIZE=5.000000
_STEPMODE='C'
_START=0.000000
_THETA=18.27
_2THETA=36.54
_KHI=0.000000
_PHI=0.000000
_X=0.000000
_Y=0.000000
_Z=0.000000
_DIVERGENCE=0.200000
_ANTISCATTER=0.200000
_DETECTOR=1
; S.C.
_HV=683.5
_GAIN=80
_LLD=0.788000
_ULD=2.160000
_DETECTORSLIT='out'
_AUX1=0.000000
_AUX2=0.000000
_AUX3=0.000000
_TIMESTARTED=4.000000
_TEMP_RATE=0.000000
_TEMP_DELAY=0.000000
_KV=40
_MA=30
_RANGE_WL=1.540600
_3DPLANE=0
_2THETACPS
   0.0000    351.67
   5.0000    345.17
  10.0000    340.84
  15.0000    352.26
  20.0000    340.17
  25.0000    343.09
  30.0000    342.42
  35.0000    337.67
  40.0000    333.26
  45.0000    328.84
  50.0000    341.26
  55.0000    342.76
  60.0000    340.01
  65.0000    342.59
  70.0000    335.01
  75.0000    341.26
  80.0000    332.26
  85.0000    332.76
  90.0000    342.51
  95.0000    347.17
 100.0000    348.84
 105.0000    351.92
 110.0000    343.09
 115.0000    350.17
 120.0000    342.34
 125.0000    344.17
 130.0000    345.01
 135.0000    346.01
 140.0000    350.84
 145.0000    347.76
 150.0000    346.42
 155.0000    352.76
 160.0000    350.17
 165.0000    341.51
 170.0000    350.42
 175.0000    348.84
 180.0000    360.59
 185.0000    348.92
 190.0000    344.17
 195.0000    341.76
 200.0000    355.34
 205.0000    344.09
 210.0000    346.92
 215.0000    351.51
 220.0000    347.17
 225.0000    341.01
 230.0000    347.34
 235.0000    356.01
 240.0000    349.59
 245.0000    337.76
 250.0000    347.26
 255.0000    350.01
 260.0000    347.26
 265.0000    347.51
 270.0000    356.76
 275.0000    345.59
 280.0000    352.51
 285.0000    346.51
 290.0000    354.59
 295.0000    340.51
 300.0000    355.76
 305.0000    340.59
 310.0000    349.59
 315.0000    363.84
 320.0000    368.76
 325.0000    369.09
 330.0000    371.76
 335.0000    368.59
 340.0000    357.84
 345.0000    363.09
 350.0000    363.92
 355.0000    358.76
; (Data for Range number 2)
_DRIVE='PHI'
_STEPTIME=11.9998
_STEPSIZE=5.000000
_STEPMODE='C'
_START=0.000000
_THETA=18.27
_2THETA=36.54
_KHI=5.000000
_PHI=0.000000
_X=0.000000
_Y=0.000000
_Z=0.000000
_DIVERGENCE=0.200000
_ANTISCATTER=0.200000
_DETECTOR=1
; S.C.
_HV=683.5
_GAIN=80
_LLD=0.788000
_ULD=2.160000
_DETECTORSLIT='out'
_AUX1=0.000000
_AUX2=0.000000
_AUX3=0.000000
_TIMESTARTED=872
_TEMP_RATE=0.000000
_TEMP_DELAY=0.000000
_KV=40
_MA=30
_RANGE_WL=1.540600
_3DPLANE=0
_2THETACPS
   0.0000    361.92
   5.0000    364.67
  10.0000    369.76
  15.0000    363.92
  20.0000    383.84
  25.0000    372.09
  30.0000    376.17
  35.0000    349.09
  40.0000    351.76
  45.0000    351.34
  50.0000    338.01
  55.0000    338.26
  60.0000    337.67
  65.0000    333.17
  70.0000    336.84
  75.0000    331.09
  80.0000    333.51
  85.0000    334.51
  90.0000    336.01
  95.0000    334.09
 100.0000    347.42
 105.0000    351.17
 110.0000    346.17
 115.0000    345.17
 120.0000    344.51
 125.0000    345.51
 130.0000    354.76
 135.0000    352.34
 140.0000    357.17
 145.0000    367.42
 150.0000    372.34
 155.0000    369.59
 160.0000    365.17
 165.0000    359.26
 170.0000    351.26
 175.0000    355.01
 180.0000    342.42
 185.0000    339.01
 190.0000    345.76
 195.0000    338.84
 200.0000    353.84
 205.0000    343.51
 210.0000    345.01
 215.0000    351.01
 220.0000    351.76
 225.0000    343.67
 230.0000    342.51
 235.0000    355.59
 240.0000    348.92
 245.0000    346.09
 250.0000    351.51
 255.0000    346.17
 260.0000    344.67
 265.0000    342.59
 270.0000    331.76
 275.0000    344.42
 280.0000    342.34
 285.0000    336.17
 290.0000    347.67
 295.0000    344.59
 300.0000    346.34
 305.0000    346.42
 310.0000    342.92
 315.0000    334.42
 320.0000    341.17
 325.0000    347.84
 330.0000    351.67
 335.0000    341.51
 340.0000    342.01
 345.0000    341.17
 350.0000    351.42
 355.0000    347.76
; (Data for Range number 3)
_DRIVE='PHI'
_STEPTIME=11.9998
_STEPSIZE=5.000000
_STEPMODE='C'
_START=0.000000
_THETA=18.27
_2THETA=36.54
_KHI=10
_PHI=0.000000
_X=0.000000
_Y=0.000000
_Z=0.000000
_DIVERGENCE=0.200000
_ANTISCATTER=0.200000
_DETECTOR=1
; S.C.
_HV=683.5
_GAIN=80
_LLD=0.788000
_ULD=2.160000
_DETECTORSLIT='out'
_AUX1=0.000000
_AUX2=0.000000
_AUX3=0.000000
_TIMESTARTED=1741
_TEMP_RATE=0.000000
_TEMP_DELAY=0.000000
_KV=40
_MA=30
_RANGE_WL=1.540600
_3DPLANE=0
_2THETACPS
   0.0000    353.42
   5.0000    362.92
  10.0000    359.76
  15.0000    366.26
  20.0000    363.51
  25.0000    362.01
  30.0000    370.92
  35.0000    371.59
  40.0000    360.76
  45.0000    354.51
  50.0000    352.59
  55.0000    337.17
  60.0000    342.17
  65.0000    341.34
  70.0000    352.92
  75.0000    347.92
  80.0000    339.01
  85.0000    342.34
  90.0000    339.67
  95.0000    340.26
 100.0000    342.59
 105.0000    343.17
 110.0000    351.17
 115.0000    343.67
 120.0000    346.92
 125.0000    347.76
 130.0000    355.67
 135.0000    350.34
 140.0000    364.42
 145.0000    381.17
 150.0000    373.09
 155.0000    376.51
 160.0000    377.26
 165.0000    375.92
 170.0000    366.76
 175.0000    358.59
 180.0000    384.76
 185.0000    378.84
 190.0000    387.59
 195.0000    375.17
 200.0000    387.17
 205.0000    377.09
 210.0000    378.26
 215.0000    363.76
 220.0000    358.17
 225.0000    352.42
 230.0000    346.34
 235.0000    345.76
 240.0000    349.34
 245.0000    342.17
 250.0000    348.17
 255.0000    332.26
 260.0000    333.01
 265.0000    334.67
 270.0000    330.59
 275.0000    335.59
 280.0000    356.84
 285.0000    366.09
 290.0000    375.26
 295.0000    390.42
 300.0000    379.67
 305.0000    375.17
 310.0000    375.92
 315.0000    383.76
 320.0000    401.09
 325.0000    412.34
 330.0000    434.17
 335.0000    415.17
 340.0000    396.17
 345.0000    371.42
 350.0000    375.42
 355.0000    363.17
; (Data for Range number 4)
_DRIVE='PHI'
_STEPTIME=11.9998
_STEPSIZE=5.000000
_STEPMODE='C'
_START=0.000000
_THETA=18.27
_2THETA=36.54
_KHI=15
_PHI=0.000000
_X=0.000000
_Y=0.000000
_Z=0.000000
_DIVERGENCE=0.200000
_ANTISCATTER=0.200000
_DETECTOR=1
; S.C.
_HV=683.5
_GAIN=80
_LLD=0.788000
_ULD=2.160000
_DETECTORSLIT='out'
_AUX1=0.000000
_AUX2=0.000000
_AUX3=0.000000
_TIMESTARTED=2610
_TEMP_RATE=0.000000
_TEMP_DELAY=0.000000
_KV=40
_MA=30
_RANGE_WL=1.540600
_3DPLANE=0
_2THETACPS
   0.0000    438.01
   5.0000    435.76
  10.0000    404.01
  15.0000    407.51
  20.0000    417.01
  25.0000    428.42
  30.0000    422.42
  35.0000    416.09
  40.0000    389.92
  45.0000    384.67
  50.0000    373.67
  55.0000    366.34
  60.0000    378.17
  65.0000    372.01
  70.0000    368.76
  75.0000    362.84
  80.0000    359.76
  85.0000    352.84
  90.0000    359.01
  95.0000    351.59
 100.0000    346.26
 105.0000    354.92
 110.0000    354.42
[...]
_Z=0.000000
_DIVERGENCE=0.200000
_ANTISCATTER=0.200000
_DETECTOR=1
; S.C.
_HV=683.5
_GAIN=80
_LLD=0.788000
_ULD=2.160000
_DETECTORSLIT='out'
_AUX1=0.000000
_AUX2=0.000000
_AUX3=0.000000
_TIMESTARTED=12163
_TEMP_RATE=0.000000
_TEMP_DELAY=0.000000
_KV=40
_MA=30
_RANGE_WL=1.540600
_3DPLANE=0
_2THETACPS
   0.0000    283.09
   5.0000    272.09
  10.0000    277.75
  15.0000    271.59
  20.0000    266.92
  25.0000    279.84
  30.0000    276.59
  35.0000    258.17
  40.0000    256.92
  45.0000    232.59
  50.0000    209.92
  55.0000    204.67
  60.0000    202.09
  65.0000    199.84
  70.0000    188.17
  75.0000    167.25
  80.0000    167.17
  85.0000    175.17
  90.0000    170.42
  95.0000    171.34
 100.0000    177.17
 105.0000    197.34
 110.0000    214.59
 115.0000    212.84
 120.0000    219.42
 125.0000    241.75
 130.0000    261.34
 135.0000    274.09
 140.0000    269.59
 145.0000    278.17
 150.0000    312.59
 155.0000    383.84
 160.0000    375.84
 165.0000    318.01
 170.0000    304.67
 175.0000    344.17
 180.0000    354.34
 185.0000    336.01
 190.0000    324.17
 195.0000    305.92
 200.0000    300.51
 205.0000    327.51
 210.0000    330.42
 215.0000    282.67
 220.0000    243.34
 225.0000    233.34
 230.0000    215.75
 235.0000    217.50
 240.0000    223.75
 245.0000    208.92
 250.0000    189.09
 255.0000    168.84
 260.0000    164.42
 265.0000    175.25
 270.0000    181.09
 275.0000    179.00
 280.0000    183.59
 285.0000    199.75
 290.0000    209.84
 295.0000    226.84
 300.0000    239.67
 305.0000    260.84
 310.0000    287.42
 315.0000    311.59
 320.0000    298.09
 325.0000    294.67
 330.0000    311.34
 335.0000    307.17
 340.0000    322.51
 345.0000    314.92
 350.0000    322.42
 355.0000    333.01
; (Data for Range number 16)
_DRIVE='PHI'
_STEPTIME=11.9998
_STEPSIZE=5.000000
_STEPMODE='C'
_START=0.000000
_THETA=18.27
_2THETA=36.54
_KHI=75
_PHI=0.000000
_X=0.000000
_Y=0.000000
_Z=0.000000
_DIVERGENCE=0.200000
_ANTISCATTER=0.200000
_DETECTOR=1
; S.C.
_HV=683.5
_GAIN=80
_LLD=0.788000
_ULD=2.160000
_DETECTORSLIT='out'
_AUX1=0.000000
_AUX2=0.000000
_AUX3=0.000000
_TIMESTARTED=13032
_TEMP_RATE=0.000000
_TEMP_DELAY=0.000000
_KV=40
_MA=30
_RANGE_WL=1.540600
_3DPLANE=0
_2THETACPS
   0.0000    101.75
   5.0000    109.25
  10.0000    111.09
  15.0000    117.92
  20.0000    123.59
  25.0000    141.92
  30.0000    151.75
  35.0000    151.75
  40.0000    162.59
  45.0000    156.84
  50.0000    154.34
  55.0000    160.75
  60.0000    152.50
  65.0000    154.17
  70.0000    149.25
  75.0000    136.59
  80.0000    137.67
  85.0000    138.34
  90.0000    133.50
  95.0000    129.17
 100.0000    140.17
 105.0000    163.17
 110.0000    160.00
 115.0000    171.00
 120.0000    173.59
 125.0000    185.75
 130.0000    181.42
 135.0000    189.67
 140.0000    177.09
 145.0000    173.42
 150.0000    188.09
 155.0000    182.25
 160.0000    151.00
 165.0000    141.42
 170.0000    118.84
 175.0000    148.25
 180.0000    161.59
 185.0000    140.84
 190.0000    121.75
 195.0000    129.17
 200.0000    146.25
 205.0000    166.92
 210.0000    168.92
 215.0000    158.50
 220.0000    158.92
 225.0000    160.17
 230.0000    166.00
 235.0000    175.67
 240.0000    175.17
 245.0000    173.42
 250.0000    140.92
 255.0000    132.17
 260.0000    133.50
 265.0000    137.42
 270.0000    139.92
 275.0000    146.67
 280.0000    152.42
 285.0000    154.25
 290.0000    174.17
 295.0000    187.59
 300.0000    192.25
 305.0000    190.00
 310.0000    199.50
 315.0000    193.25
 320.0000    187.17
 325.0000    193.50
 330.0000    178.75
 335.0000    159.59
 340.0000    148.67
 345.0000    142.17
 350.0000    136.42
 355.0000    129.25

File: ZnCuTi_Wal_50_5x5_PF_100_R.UXD
; C:\Users\Stanis³aw\OneDrive\Documents\paracamgr\DANE DO MGR\24.03.2015\tekstura\TExtura\Tekstura\ZnCuTi_Wal_50_5x5_PF_100_R.raw(Diffrac Plus V1.01 file) converted by XCH V1.0
_FILEVERSION=2
_SITE='Poland'
_USER='Administrator'
_SAMPLE_CHANGER_CODE=0
_ATTACHMENTS_CODE=0
_GONIOMETER_RADIUS=300
_FIXED_DIVSLIT=0.600000
_FIXED_SAMPLESLIT=1.000000
_FIXED_DETSLIT=0.100000
_MONOCHROMATOR=0
; None
_THIN_FILM='N'
_BETA_FILTER='N'
_FIXED_ANTISLIT=0.600000
_ANALYZER_CODE=0
; None
_DATEMEASURED='25-Feb-2015 22:53:16'
_WL_UNIT='A'
_WL1=1.540600
_WL2=1.544390
_WL3=1.392220
_WLRATIO=0.500000
_ANODE='Cu'
; (Data for Range number 1)
_DRIVE='PHI'
_STEPTIME=11.9998
_STEPSIZE=5.000000
_STEPMODE='C'
_START=0.000000
_THETA=19.565
_2THETA=39.13
_KHI=0.000000
_PHI=0.000000
_X=0.000000
_Y=0.000000
_Z=0.000000
_DIVERGENCE=0.200000
_ANTISCATTER=0.200000
_DETECTOR=1
; S.C.
_HV=683.5
_GAIN=80
_LLD=0.788000
_ULD=2.160000
_DETECTORSLIT='out'
_AUX1=0.000000
_AUX2=0.000000
_AUX3=0.000000
_TIMESTARTED=22
_TEMP_RATE=0.000000
_TEMP_DELAY=0.000000
_KV=40
_MA=30
_RANGE_WL=1.540600
_3DPLANE=0
_2THETACPS
   0.0000    542.59
   5.0000    531.59
  10.0000    542.76
  15.0000    552.34
  20.0000    548.76
  25.0000    549.84
  30.0000    570.59
  35.0000    567.43
  40.0000    556.01
  45.0000    558.34
  50.0000    551.26
  55.0000    577.09
  60.0000    572.51
  65.0000    556.59
  70.0000    576.51
  75.0000    576.09
  80.0000    564.34
  85.0000    575.01
  90.0000    580.18
  95.0000    559.51
 100.0000    561.43
 105.0000    582.51
 110.0000    562.84
 115.0000    573.76
 120.0000    591.43
 125.0000    584.18
 130.0000    586.09
 135.0000    579.59
 140.0000    589.43
 145.0000    582.18
 150.0000    593.51
 155.0000    587.51
 160.0000    599.68
 165.0000    594.84
 170.0000    599.68
 175.0000    603.59
 180.0000    604.68
 185.0000    599.34
 190.0000    598.26
 195.0000    608.59
 200.0000    588.18
 205.0000    592.76
 210.0000    586.01
 215.0000    593.18
 220.0000    586.18
 225.0000    586.84
 230.0000    599.09
 235.0000    588.09
 240.0000    587.51
 245.0000    584.34
 250.0000    578.84
 255.0000    591.68
 260.0000    575.09
 265.0000    579.01
 270.0000    569.51
 275.0000    580.84
 280.0000    559.59
 285.0000    566.51
 290.0000    556.93
 295.0000    550.76
 300.0000    540.93
 305.0000    547.34
 310.0000    536.26
 315.0000    550.01
 320.0000    541.76
 325.0000    544.93
 330.0000    547.26
 335.0000    535.18
 340.0000    542.26
 345.0000    547.26
 350.0000    536.34
 355.0000    537.01
; (Data for Range number 2)
_DRIVE='PHI'
_STEPTIME=11.9998
_STEPSIZE=5.000000
_STEPMODE='C'
_START=0.000000
_THETA=19.565
_2THETA=39.13
_KHI=5.000000
_PHI=0.000000
_X=0.000000
_Y=0.000000
_Z=0.000000
_DIVERGENCE=0.200000
_ANTISCATTER=0.200000
_DETECTOR=1
; S.C.
_HV=683.5
_GAIN=80
_LLD=0.788000
_ULD=2.160000
_DETECTORSLIT='out'
_AUX1=0.000000
_AUX2=0.000000
_AUX3=0.000000
_TIMESTARTED=892
_TEMP_RATE=0.000000
_TEMP_DELAY=0.000000
_KV=40
_MA=30
_RANGE_WL=1.540600
_3DPLANE=0
_2THETACPS
   0.0000    521.51
   5.0000    524.01
  10.0000    513.93
  15.0000    521.84
  20.0000    535.93
  25.0000    524.76
  30.0000    527.01
  35.0000    547.43
  40.0000    558.34
  45.0000    555.84
  50.0000    568.93
  55.0000    552.26
  60.0000    577.51
  65.0000    570.59
  70.0000    568.93
  75.0000    569.93
  80.0000    583.51
  85.0000    575.34
  90.0000    584.09
  95.0000    573.34
 100.0000    570.34
 105.0000    581.26
 110.0000    587.68
 115.0000    584.51
 120.0000    566.84
 125.0000    578.59
 130.0000    584.59
 135.0000    591.68
 140.0000    601.43
 145.0000    583.09
 150.0000    581.59
 155.0000    585.76
 160.0000    585.43
 165.0000    567.84
 170.0000    550.51
 175.0000    546.76
 180.0000    543.93
 185.0000    547.68
 190.0000    542.76
 195.0000    560.26
 200.0000    585.84
 205.0000    583.34
 210.0000    583.84
 215.0000    607.34
 220.0000    609.84
 225.0000    600.34
 230.0000    595.01
 235.0000    586.93
 240.0000    577.93
 245.0000    579.26
 250.0000    585.68
 255.0000    577.68
 260.0000    566.76
 265.0000    566.43
 270.0000    567.26
 275.0000    575.76
 280.0000    578.51
 285.0000    573.76
 290.0000    571.01
 295.0000    582.84
 300.0000    570.18
 305.0000    550.93
 310.0000    552.51
 315.0000    562.84
 320.0000    570.09
 325.0000    552.26
 330.0000    543.76
 335.0000    533.18
 340.0000    541.34
 345.0000    531.93
 350.0000    526.84
 355.0000    521.76
; (Data for Range number 3)
_DRIVE='PHI'
_STEPTIME=11.9998
_STEPSIZE=5.000000
_STEPMODE='C'
_START=0.000000
_THETA=19.565
_2THETA=39.13
_KHI=10
_PHI=0.000000
_X=0.000000
_Y=0.000000
_Z=0.000000
_DIVERGENCE=0.200000
_ANTISCATTER=0.200000
_DETECTOR=1
; S.C.
_HV=683.5
_GAIN=80
_LLD=0.788000
_ULD=2.160000
_DETECTORSLIT='out'
_AUX1=0.000000
_AUX2=0.000000
_AUX3=0.000000
_TIMESTARTED=1760
_TEMP_RATE=0.000000
_TEMP_DELAY=0.000000
_KV=40
_MA=30
_RANGE_WL=1.540600
_3DPLANE=0
_2THETACPS
   0.0000    488.42
   5.0000    478.34
  10.0000    489.92
  15.0000    488.34
  20.0000    491.42
  25.0000    480.01
  30.0000    476.42
  35.0000    502.01
  40.0000    512.68
  45.0000    523.59
  50.0000    522.43
  55.0000    520.59
  60.0000    520.18
  65.0000    534.26
  70.0000    545.26
  75.0000    565.09
  80.0000    571.68
  85.0000    559.18
  90.0000    566.01
  95.0000    564.18
 100.0000    558.18
 105.0000    546.01
 110.0000    552.84
 115.0000    574.09
 120.0000    559.84
 125.0000    559.43
 130.0000    559.34
 135.0000    567.34
 140.0000    547.01
 145.0000    552.68
 150.0000    572.09
 155.0000    578.84
 160.0000    570.59
 165.0000    574.43
 170.0000    556.84
 175.0000    536.68
 180.0000    542.68
 185.0000    562.09
 190.0000    583.84
 195.0000    573.68
 200.0000    574.43
 205.0000    582.68
 210.0000    569.18
 215.0000    563.51
 220.0000    560.34
 225.0000    552.09
 230.0000    563.43
 235.0000    562.76
 240.0000    576.93
 245.0000    558.51
 250.0000    563.43
 255.0000    549.43
 260.0000    538.59
 265.0000    548.34
 270.0000    563.76
 275.0000    562.34
 280.0000    544.34
 285.0000    556.93
 290.0000    557.76
 295.0000    554.18
 300.0000    556.43
 305.0000    546.93
 310.0000    567.26
 315.0000    564.18
 320.0000    544.84
 325.0000    547.51
 330.0000    533.93
 335.0000    520.18
 340.0000    504.18
 345.0000    494.84
 350.0000    484.67
 355.0000    473.51
; (Data for Range number 4)
_DRIVE='PHI'
_STEPTIME=11.9998
_STEPSIZE=5.000000
_STEPMODE='C'
_START=0.000000
_THETA=19.565
_2THETA=39.13
_KHI=15
_PHI=0.000000
_X=0.000000
_Y=0.000000
_Z=0.000000
_DIVERGENCE=0.200000
_ANTISCATTER=0.200000
_DETECTOR=1
; S.C.
_HV=683.5
_GAIN=80
_LLD=0.788000
_ULD=2.160000
_DETECTORSLIT='out'
_AUX1=0.000000
_AUX2=0.000000
_AUX3=0.000000
_TIMESTARTED=2629
_TEMP_RATE=0.000000
_TEMP_DELAY=0.000000
_KV=40
_MA=30
_RANGE_WL=1.540600
_3DPLANE=0
_2THETACPS
   0.0000    479.51
   5.0000    486.92
  10.0000    498.84
  15.0000    507.76
  20.0000    488.84
  25.0000    475.92
  30.0000    487.17
  35.0000    513.43
  40.0000    506.68
  45.0000    516.68
  50.0000    536.51
  55.0000    536.76
  60.0000    552.26
  65.0000    584.93
  70.0000    600.76
  75.0000    602.68
  80.0000    584.01
  85.0000    557.84
  90.0000    547.93
  95.0000    571.09
 100.0000    569.09
 105.0000    577.34
 110.0000    576.34
[...]
_Z=0.000000
_DIVERGENCE=0.200000
_ANTISCATTER=0.200000
_DETECTOR=1
; S.C.
_HV=683.5
_GAIN=80
_LLD=0.788000
_ULD=2.160000
_DETECTORSLIT='out'
_AUX1=0.000000
_AUX2=0.000000
_AUX3=0.000000
_TIMESTARTED=12183
_TEMP_RATE=0.000000
_TEMP_DELAY=0.000000
_KV=40
_MA=30
_RANGE_WL=1.540600
_3DPLANE=0
_2THETACPS
   0.0000    267.92
   5.0000    277.00
  10.0000    287.34
  15.0000    292.00
  20.0000    302.92
  25.0000    284.67
  30.0000    282.67
  35.0000    298.42
  40.0000    290.34
  45.0000    280.25
  50.0000    271.00
  55.0000    278.42
  60.0000    283.42
  65.0000    273.25
  70.0000    281.25
  75.0000    278.84
  80.0000    273.25
  85.0000    286.67
  90.0000    289.42
  95.0000    292.75
 100.0000    297.25
 105.0000    316.59
 110.0000    314.09
 115.0000    305.67
 120.0000    312.84
 125.0000    315.17
 130.0000    306.59
 135.0000    305.59
 140.0000    300.51
 145.0000    312.01
 150.0000    296.75
 155.0000    306.01
 160.0000    307.84
 165.0000    277.50
 170.0000    279.50
 175.0000    288.67
 180.0000    274.59
 185.0000    279.25
 190.0000    293.50
 195.0000    292.42
 200.0000    295.84
 205.0000    302.67
 210.0000    314.34
 215.0000    302.01
 220.0000    282.42
 225.0000    290.50
 230.0000    304.09
 235.0000    296.09
 240.0000    283.84
 245.0000    272.17
 250.0000    298.25
 255.0000    296.84
 260.0000    287.00
 265.0000    293.34
 270.0000    310.17
 275.0000    307.51
 280.0000    291.42
 285.0000    302.92
 290.0000    300.67
 295.0000    307.42
 300.0000    299.00
 305.0000    292.84
 310.0000    311.01
 315.0000    311.42
 320.0000    295.42
 325.0000    269.92
 330.0000    277.75
 335.0000    269.92
 340.0000    269.75
 345.0000    283.92
 350.0000    275.67
 355.0000    268.59
; (Data for Range number 16)
_DRIVE='PHI'
_STEPTIME=11.9998
_STEPSIZE=5.000000
_STEPMODE='C'
_START=0.000000
_THETA=19.565
_2THETA=39.13
_KHI=75
_PHI=0.000000
_X=0.000000
_Y=0.000000
_Z=0.000000
_DIVERGENCE=0.200000
_ANTISCATTER=0.200000
_DETECTOR=1
; S.C.
_HV=683.5
_GAIN=80
_LLD=0.788000
_ULD=2.160000
_DETECTORSLIT='out'
_AUX1=0.000000
_AUX2=0.000000
_AUX3=0.000000
_TIMESTARTED=13051
_TEMP_RATE=0.000000
_TEMP_DELAY=0.000000
_KV=40
_MA=30
_RANGE_WL=1.540600
_3DPLANE=0
_2THETACPS
   0.0000    147.75
   5.0000    142.75
  10.0000    158.34
  15.0000    175.67
  20.0000    175.84
  25.0000    189.84
  30.0000    194.42
  35.0000    204.25
  40.0000    205.50
  45.0000    204.59
  50.0000    197.59
  55.0000    214.84
  60.0000    216.92
  65.0000    234.42
  70.0000    218.00
  75.0000    224.42
  80.0000    218.59
  85.0000    217.84
  90.0000    219.75
  95.0000    247.00
 100.0000    221.67
 105.0000    240.92
 110.0000    251.75
 115.0000    246.42
 120.0000    242.09
 125.0000    242.17
 130.0000    241.50
 135.0000    235.84
 140.0000    218.00
 145.0000    209.50
 150.0000    193.50
 155.0000    180.75
 160.0000    177.34
 165.0000    163.84
 170.0000    157.00
 175.0000    149.84
 180.0000    150.25
 185.0000    160.00
 190.0000    153.75
 195.0000    167.92
 200.0000    178.84
 205.0000    183.75
 210.0000    199.00
 215.0000    205.84
 220.0000    211.25
 225.0000    234.00
 230.0000    235.25
 235.0000    227.09
 240.0000    220.09
 245.0000    212.34
 250.0000    235.34
 255.0000    209.67
 260.0000    210.17
 265.0000    218.00
 270.0000    230.84
 275.0000    231.84
 280.0000    229.92
 285.0000    226.75
 290.0000    230.42
 295.0000    240.84
 300.0000    245.92
 305.0000    243.42
 310.0000    230.09
 315.0000    224.25
 320.0000    198.17
 325.0000    188.25
 330.0000    177.17
 335.0000    165.67
 340.0000    169.34
 345.0000    151.09
 350.0000    154.25
 355.0000    150.34