Folder: mtex/data/PoleFigure

Note: data/PoleFigure/Rigaku_txt.TXT
Sample	
Comments	
Filename	C:\Windmax\Data\USERS\MSE\KYUBUM~1\NiTi_082812_42deg.raw
Goniometer	Ultima IV In-plane
Attachment	Thin Film Att.
ScanningMode	Beta
ScanningType	Continuos Scanning
X-Ray	40kV/44mA
Attenuator	open
DivSlit	1.0mm
SctSlit	2.0mm
RecSlit	2.0mm
Attenuator	
Start	0
Stop	360
Step	3
Speed	180
Offset	0
0	12
3	9
6	7
9	7
12	21
15	8
18	4
21	5
24	13
27	9
30	8
33	9
36	9
39	3
42	8
45	6
48	11
51	7
54	10
57	7
60	10
63	7
66	7
69	5
72	8
75	10
78	8
81	7
84	13
87	8
90	8
93	8
96	4
99	13
102	11
105	5
108	7
111	11
114	9
117	6
120	11
123	14
126	9
129	10
132	10
135	9
138	9
141	5
144	13
147	14
150	14
153	10
156	5
159	11
162	13
165	11
168	8
171	8
174	13
177	7
180	9
183	6
186	6
189	9
192	5
195	11
198	8
201	14
204	8
207	9
210	4
213	8
216	7
219	11
222	7
225	3
228	4
231	5
234	6
237	8
240	9
243	4
246	10
249	9
252	8
255	14
258	9
261	9
264	11
267	7
270	9
273	7
276	9
279	7
282	12
285	8
288	8
291	9
294	9
297	9
300	8
303	7
306	9
309	6
312	7
315	12
318	10
321	8
324	10
327	7
330	8
333	11
336	4
339	9
342	8
345	11
348	12
351	9
354	7
357	6
360	12
X-Ray	40kV/44mA
Attenuator	open
DivSlit	1.0mm
SctSlit	2.0mm
RecSlit	2.0mm
Attenuator	
Start	0
Stop	360
Step	3
Speed	180
Offset	0
0	29
3	38
6	42
9	35
12	40
15	31
18	36
21	44
24	44
27	33
30	38
33	38
36	36
39	40
42	39
45	26
48	41
51	32
54	44
57	41
60	38
63	50
66	36
69	61
72	40
75	31
78	55
81	56
84	44
87	47
90	65
93	48
96	54
99	53
102	53
105	72
108	52
111	57
114	51
117	48
120	42
123	47
126	74
129	51
132	65
135	53
138	59
141	61
144	60
147	50
150	42
153	67
156	62
159	51
162	54
165	66
168	55
171	48
174	53
177	29
180	47
183	58
186	42
189	50
192	42
195	49
198	41
201	55
204	40
207	57
210	52
213	55
216	60
219	48
222	46
225	38
228	47
231	48
234	42
237	39
240	28
243	40
246	30
249	35
252	45
255	46
258	42
261	46
264	42
267	53
270	62
273	55
276	49
279	45
282	53
285	37
288	43
291	30
294	26
297	38
300	38
303	40
306	43
309	33
312	42
315	34
318	42
321	40
324	38
327	33
330	26
333	46
336	36
339	44
342	38
345	44
348	28
351	37
354	38
357	35
360	29
X-Ray	40kV/44mA
Attenuator	open
DivSlit	1.0mm
SctSlit	2.0mm
RecSlit	2.0mm
Attenuator	
Start	0
Stop	360
Step	3
Speed	180
Offset	0
0	67
3	49
6	55
9	61
12	63
15	51
18	59
21	68
24	66
27	51
30	45
33	65
36	64
39	59
42	55
45	53
48	47
51	54
54	47
57	57
60	52
63	66
66	49
69	54
72	55
75	44
78	57
81	61
84	64
87	73
90	56
93	54
96	54
99	66
102	68
105	58
108	65
111	68
114	57
117	58
120	72
123	62
126	68
129	56
132	63
135	73
138	66
141	84
144	71
147	87
150	74
153	64
156	78
159	73
162	67
165	69
168	68
171	80
174	64
177	55
180	59
183	50
186	61
189	58
192	67
195	69
198	76
201	76
204	83
207	82
210	70
213	96
216	84
219	78
222	67
225	75
228	69
231	69
234	60
237	61
240	7

Note: README.txt
MTEX - MATLAB toolbox for quantitative texture analysis

Overview
--------

MTEX is a MATLAB toolbox containing the following features

- Analyze and visualize crystallographic geometries
- Calculate with model ODFs
- Import, analyze and visualize arbitrary diffraction data
- Import, analyze and visualize arbitrary individuell orientation mesurements (EBSD)
- Grain and missorientation analysis
- Recover orientation density functions (ODFs)
- Calculate texture characteristics
- Create publication ready plots
- Writting scripts to process many data sets

For an introduction, please have a look at the help first. If the
toolbox is installed the help can be found in the MATLAB help window
which can be opend by typing 'doc mtex'.
For installation instructions, you can also refer to the file INSTALL
in this directory.

Directory structure
-------------------
AUTHORS		      information about the authors of MTEX
c (dir)         source code for core library routines
ChangeLog	      a short version history
COPYING		      information about redistributing MTEX
data (dir)      some sample data sets
examples (dir)  simple examples for using MTEX
geometry (dir)  geometry tools
help (dir)	    user and developer documentation
info.xml        used by MATLAB
istall_mtex     install MTEX for permanent use
INSTALL         installation instructions
MAKEFILE        contains the compiling options !! to be edited by the advanced user !!
mtex_settings   contains the configuration of MTEX !! to be edited by the user !!
qta (dir)       core scripts for working with ODFs, EBSD data, and PDFs
templates (dir) template file for importing EBSD and pole figure data
README          this file
startup.m       initialization routine automticaly called by MATLAB if the
                toolbox is contained in the search path of MATLAB
startup_mtex    initialization routine for MTEX - to be called at the
                beginning of each MTEX session
tests (dir)     some self tests
tools           auxiliary tools
unistall_mtex   remove MTEX from the search path (permanently)


Feedback
--------
Your comments are welcome! MTEX is heavily developed and may not be
as robust or well documented as it should be. Please keep track of bugs or
missing/confusing instructions and report them to

  Dr. Ralf Hielscher <Ralf.Hielscher@gmail.com,Ralf.Hielscher@gmail.com>
  TU Chemnitz
  Fakultät für Mathematik
  Reichenhainer Str.39, Zimmer 710
  D-09107 Chemnitz, GERMANY

  personal homepage: http://www-user.tu-chemnitz.de/~rahi/

  MTEX Homepage: http://code.google.com/p/mtex/

If you find MTEX useful, we would be delighted to hear about what application you are using MTEX for!

Legal Information & Credits
---------------------------
Copyright (C) 2005-2010 Ralf Hielscher & Florian Bachmann

This software was written by Ralf Hielscher and Florian Bachmann.
It was developed at the Institute of Geoinformatics,
Freiberg University of Technology.

MTEX is free software. You can redistribute it and/or mo

File: Rigaku_xrd_110.asc
*TYPE		=  Raw
*CLASS		=  Polefig
*SAMPLE		=  80-90
*COMMENT	=  Alpha-R=80.000
*FNAME		=  pf_Al2O3_110@110.raw
*DATE		=  07-Apr-10 12:19

*GROUP_COUNT	=  1
*GONIO		=  RINT2000 wide angle goniometer, 185
*ATTACHMENT	=  Multipurpose attachment for Pole Fig.
*ASC		=  0, 0, 0.000000, 0.000000
*C_MONOCHRO	=  Fixed Monochromator, 6.708
*SLIT_NAME	=  0, DivSlit
*SLIT_NAME	=  1, SctSlit
*SLIT_NAME	=  2, RecSlit
*SLIT_NAME	=  3, DivH.L.Slit
*COUNTER	=  Scintillation counter, 0
*POS_FORMAT	=  0
*SCAN_AXIS	=  beta
*MEAS_MODE	=  Continuous Scanning
*TARGET		=  29
*XRAY_CHAR	=  K-ALPHA1
*WAVE_LENGTH1	=  1.54056
*WAVE_LENGTH2	=  1.5444
*THICKNESS	=  0, 0.1
*MU		=  0, 65
*SCAN_MODE	=  beta
*SPEED_DIM	=  sec./step
*XUNIT		=  deg.
*YUNIT		=  counts
*SCALE_MODE	=  1
*REP_COUNT	=  1
*SE_COUNT	=  0
*STD_MATERIAL	=  Unknown, Unknown, 0.000000, 0.000000, 0.000000, 0.000000, 0.000000, 0.000000
*LATT_CONS	=  0, Cubic, Unknown, 0.000000, 0.000000, 0.000000, 0.000000, 0.000000, 0.000000
*SEC_COUNT	=  11
*TSPEC_SIZE	=  0
*EXTRA_SIZE	=  0
*PF_MEASUR	=  Coaxial circle scan
*PF_DATATYPE	=  Integral intensity
*PF_METHOD	=  0, Unknown
*PF_METHOD	=  1, Schulz reflection method
*PF_PCOUNT	=  0, 0
*PF_PCOUNT	=  1, 11
*PF_ASTART	=  0, 0.000000
*PF_ASTART	=  1, 80
*PF_ASTOP	=  0, 30
*PF_ASTOP	=  1, 90
*PF_ASTEP	=  0, 10
*PF_ASTEP	=  1, 1
*PF_ASPEED	=  0, 0.000000
*PF_ASPEED	=  1, 0.000000
*PF_GAMMA	=  0, 0.000000
*PF_GAMMA	=  1, 0.000000
*PF_2THANGLE	=  0, 38.417
*PF_2THANGLE	=  1, 37.9
*PF_2THSTART	=  0, 0.000000
*PF_2THSTART	=  1, 0.000000
*PF_2THSTOP	=  0, 0.000000
*PF_2THSTOP	=  1, 0.000000
*PF_2THSTEP	=  0, 0.000000
*PF_2THSTEP	=  1, 0.000000
*PF_ASPEED	=  0, 0.000000
*PF_ASPEED	=  1, 0.000000
*MEMO		=  pf_Al2O3_110@110

*BEGIN
*GROUP		=  0
*START		=  0.000000
*STOP		=  360
*STEP		=  0.5
*OFFSET		=
*SPEED		=  0.0833333
*SLIT_SPEC	=  0, 1/2deg., 0.87, 10
*SLIT_SPEC	=  1, 1/2deg., 0.47, 20
*SLIT_SPEC	=  2, 0.3mm, 0.3, 20
*SLIT_SPEC	=  3, 1.2mm, 8, 1.2
*KV		=  20
*MA		=  10
*LOW		=  0.000000
*HIGH		=  0.000000
*CTEMPER	=  0, 0.000000
*CTEMPER	=  1, 0.000000
*CTEMPER	=  2, 0.000000
*PAREX		=  0, 0.000000
*PAREX		=  1, 0.000000
*PAREX		=  2, 0.000000
*PAREX		=  3, 0.000000
*PAREX		=  4, 0.000000
*PAREX		=  5, 0.000000
*PAREX		=  6, 0.000000
*PAREX		=  7, 0.000000
*PAREX		=  8, 0.000000
*PAREX		=  9, 0.000000
*PAREX		=  10, 0.000000
*PAREX		=  11, 0.000000
*PAREX		=  12, 0.000000
*PAREX		=  13, 0.000000
*PAREX		=  14, 0.000000
*PAREX		=  15, 0.000000
*FULL_SCALE	=  100
*PF_AANGLE	=  80
*PF_BANGLE	=  0.000000
*INDEX		=  1, 1, 1
*COUNT		=  721
0.000000, 0.000000, 0.000000, 1
0.000000, 0.000000, 0.000000, 0.000000
0.000000, 0.000000, 0.000000, 0.000000
0.000000, 0.000000, 0.000000, 0.000000
0.000000, 0.000000, 0.000000, 0.000000
0.000000, 0.000000, 0.000000, 0.000000
0.000000, 0.000000, 0.000000, 0.000000
0.000000, 0.000000, 0.000000, 0.000000
0.000000, 0.000000, 0.000000, 0.000000
0.000000, 0.000000, 0.000000, 0.000000
0.000000, 0.000000, 0.000000, 0.000000
0.000000, 0.000000, 0.000000, 0.000000
0.000000, 0.000000, 0.000000, 0.000000
0.000000, 0.000000, 0.000000, 0.000000
0.000000, 0.000000, 0.000000, 1
0.000000, 0.000000, 0.000000, 0.000000
0.000000, 0.000000, 0.000000, 0.000000
0.000000, 0.000000, 0.000000, 0.000000
0.000000, 0.000000, 0.000000, 0.000000
0.000000, 0.000000, 0.000000, 0.000000
0.000000, 0.000000, 0.000000, 0.000000
0.000000, 0.000000, 0.000000, 0.000000
0.000000, 0.000000, 0.000000, 0.000000
0.000000, 0.000000, 0.000000, 0.000000
1, 0.000000, 0.000000, 0.000000
0.000000, 0.000000, 0.000000, 0.000000
0.000000, 0.000000, 0.000000, 0.000000
0.000000, 0.000000, 0.000000, 0.000000
0.000000, 0.000000, 0.000000, 0.000000
0.000000, 0.000000, 0.000000, 0.000000
0.000000, 0.000000, 0.000000, 0.000000
0.000000, 0.000000, 0.000000, 0.000000
0.000000, 0.000000, 0.000000, 0.000000
0.000000, 0.000000, 0.000000, 0.000000
0.000000, 0.000000, 0.000000, 0.000000
0.000000, 0.000000, 0.000000, 0.000000
0.000000, 0.000000, 0.000000, 0.000000
0.000000, 0.000000, 0.000000, 0.000000
0.000000, 0.000000, 0.000000, 0.000000
0.000000, 0.000000, 0.000000, 0.000000
0.000000, 0.000000, 1, 0.000000
0.000000, 0.000000, 0.000000, 0.000000
0.000000, 0.000000, 0.000000, 0.000000
0.000000, 0.000000, 0.000000, 0.000000
0.000000, 0.000000, 0.000000, 0.000000
0.000000, 0.000000, 0.000000, 0.000000
0.000000, 0.000000, 0.000000, 0.000000
0.000000, 0.000000, 0.000000, 0.000000
0.000000, 0.000000, 0.000000, 0.000000
0.000000, 0.000000, 0.000000, 0.000000
0.000000, 0.000000, 0.000000, 0.000000
0.000000, 0.000000, 0.000000, 0.000000
0.000000, 0.000000, 0.000000, 1
0.000000, 0.000000, 0.000000, 0.000000
0.000000, 0.000000, 0.000000, 0.000000
0.000000, 0.000000, 0.000000, 0.000000
0.000000, 0.000000, 0.000000, 0.000000
0.000000, 0.000000, 0.000000, 0.000000
0.000000, 0.000000, 0.000000, 0.000000
0.000000, 0.000000, 0.000000, 0.000000
0.000000, 0.000000, 0.000000, 0.000000
0.000000, 0.000000, 0.000000, 0.000000
0.000000, 1, 0.000000, 0.000000
0.000000, 0.000000, 0.000000, 0.000000
0.000000, 0.000000, 0.000000, 0.000000
0.000000, 0.000000, 0.000000, 0.000000
0.000000, 0.000000, 0.000000, 0.000000
0.000000, 0.000000, 0.000000, 0.000000
0.000000, 0.000000, 0.000000, 1
0.000000, 0.000000, 0.000000, 0.000000
0.000000, 0.000000, 0.000000, 0.000000
0.000000, 0.000000, 0.000000, 0.000000
0.000000, 0.000000, 1, 0.000000
0.000000, 0.000000, 0.000000, 0.000000
0.000000, 0.000000, 0.000000, 0.000000
0.000000, 1, 0.000000, 0.000000
0.000000, 0.000000, 0.000000, 0.000000
0.000000, 0.000000, 0.000000, 0.000000
0.000000, 0.000000, 0.000000, 0.000000
0.000000, 0.000000, 1, 0.000000
0.000000, 0.000000, 0.000000, 0.000000
0.000000, 0.000000, 0.000000, 0.000000
0.000000, 0.000000, 0.000000, 0.000000
0.000000, 0.000000, 0.000000, 0.000000
0.000000, 0.000000, 0.000000, 0.000000
0.000000, 0.000000, 0.000000, 0.000000
0.000000, 0.000000, 0.000000, 0.000000
0.000000, 0.000000, 0.000000, 0.000000
0.000000, 0.000000, 0.000000, 0.000000
0.000000, 0.000000, 0.000000, 0.000000
0.000000, 0.000000, 0.000000, 0.000000
0.000000, 0.000000, 0.000000, 0.000000
0.000000, 0.000000, 0.000000, 0.000000
1, 0.000000, 0.000000, 0.000000
0.000000, 0.000000, 0.000000, 0.000000
0.000000, 0.000000, 0.000000, 0.000000
0.000000, 0.000000, 0.000000, 0.000000
0.000000, 0.000000, 0.000000, 0.000000
0.000000, 0.000000, 0.000000, 0.000000
0.000000, 0.000000, 0.000000, 0.000000
1, 0.000000, 0.000000, 0.000000
0.000000, 0.000000, 0.000000, 0.000000
0.000000, 0.000000, 0.000000, 0.000000
0.000000, 0.000000, 0.000000, 0.000000
0.000000, 0.000000, 0.000000, 0.000000
0.000000, 0.000000, 0.000000, 1
1, 0.000000, 0.000000, 0.000000
0.000000, 0.000000, 0.000000, 0.000000
0.000000, 0.000000, 0.000000, 0.000000
0.000000, 0.000000, 0.000000, 0.000000
0.000000, 1, 0.000000, 0.000000
0.000000, 0.000000, 0.000000, 0.000000
0.000000, 0.000000, 0.000000, 0.000000
0.000000, 0.000000, 0.000000, 0.000000
0.000000, 0.000000, 0.000000, 0.000000
0.000000, 0.000000, 0.000000, 0.000000
0.000000, 0.000000, 0.000000, 0.000000
0.000000, 0.000000, 0.000000, 0.000000
0.000000, 0.000000, 0.000000, 0.000000
0.000000, 0.000000, 0.000000, 0.000000
0.000000, 0.000000, 0.000000, 0.000000
0.000000, 0.000000, 0.000000, 0.000000
0.000000, 0.000000, 0.000000, 0.000000
0.000000, 0.000000, 0.000000, 1
0.000000, 0.000000, 0.000000, 0.000000
[...]
0.000000, 0.000000, 1, 0.000000
1, 1, 2, 3
4, 0.000000, 1, 2
0.000000, 0.000000, 0.000000, 2
3
*END

*BEGIN
*GROUP		=  0
*START		=  0.000000
*STOP		=  360
*STEP		=  0.5
*OFFSET		=
*SPEED		=  0.0833333
*SLIT_SPEC	=  0, 1/2deg., 0.87, 10
*SLIT_SPEC	=  1, 1/2deg., 0.47, 20
*SLIT_SPEC	=  2, 0.3mm, 0.3, 20
*SLIT_SPEC	=  3, 1.2mm, 8, 1.2
*KV		=  20
*MA		=  10
*LOW		=  0.000000
*HIGH		=  0.000000
*CTEMPER	=  0, 0.000000
*CTEMPER	=  1, 0.000000
*CTEMPER	=  2, 0.000000
*PAREX		=  0, 0.000000
*PAREX		=  1, 0.000000
*PAREX		=  2, 0.000000
*PAREX		=  3, 0.000000
*PAREX		=  4, 0.000000
*PAREX		=  5, 0.000000
*PAREX		=  6, 0.000000
*PAREX		=  7, 0.000000
*PAREX		=  8, 0.000000
*PAREX		=  9, 0.000000
*PAREX		=  10, 0.000000
*PAREX		=  11, 0.000000
*PAREX		=  12, 0.000000
*PAREX		=  13, 0.000000
*PAREX		=  14, 0.000000
*PAREX		=  15, 0.000000
*FULL_SCALE	=  100
*PF_AANGLE	=  90
*PF_BANGLE	=  0.000000
*INDEX		=  1, 1, 1
*COUNT		=  721
0.000000, 0.000000, 6, 2
1, 1, 1, 1
0.000000, 3, 0.000000, 1
1, 0.000000, 1, 1
5, 2, 3, 2
4, 1, 1, 6
2, 1, 3, 1
1, 1, 4, 1
4, 0.000000, 2, 0.000000
5, 1, 2, 1
2, 1, 4, 0.000000
1, 3, 0.000000, 1
5, 1, 3, 2
5, 2, 4, 0.000000
2, 1, 3, 2
2, 2, 2, 1
3, 3, 2, 4
6, 3, 2, 4
4, 2, 2, 2
3, 4, 1, 3
1, 2, 5, 3
4, 6, 3, 4
3, 4, 3, 3
3, 2, 3, 2
5, 5, 4, 6
5, 3, 3, 2
8, 5, 6, 4
7, 5, 7, 7
7, 8, 8, 5
8, 5, 10, 8
6, 8, 9, 7
7, 6, 11, 4
7, 14, 9, 21
9, 16, 13, 18
9, 14, 14, 17
18, 24, 19, 20
19, 23, 27, 24
29, 29, 23, 21
30, 30, 35, 41
44, 30, 43, 32
39, 44, 51, 66
76, 103, 122, 191
313, 499, 842, 1258
1806, 2285, 2557, 2719
2725, 2849, 2853, 2867
2681, 2420, 1710, 889
342, 104, 89, 85
70, 58, 61, 49
40, 49, 37, 49
45, 19, 32, 25
35, 18, 31, 18
26, 16, 17, 23
23, 13, 15, 17
18, 10, 12, 10
16, 9, 12, 13
11, 14, 8, 13
18, 5, 10, 6
11, 8, 15, 2
3, 7, 13, 5
3, 8, 6, 4
4, 2, 7, 5
6, 9, 6, 6
3, 5, 2, 3
5, 4, 4, 2
3, 5, 2, 1
3, 3, 2, 5
2, 3, 1, 3
5, 4, 0.000000, 1
4, 1, 2, 3
4, 0.000000, 2, 0.000000
5, 2, 2, 4
2, 1, 0.000000, 2
2, 1, 1, 1
1, 0.000000, 3, 2
3, 4, 2, 2
1, 1, 3, 2
1, 0.000000, 2, 3
0.000000, 2, 2, 6
1, 2, 0.000000, 3
4, 0.000000, 3, 0.000000
2, 1, 3, 2
1, 0.000000, 2, 0.000000
1, 0.000000, 0.000000, 3
1, 4, 1, 0.000000
2, 2, 1, 2
2, 1, 0.000000, 1
1, 1, 1, 2
2, 1, 2, 3
4, 1, 1, 3
0.000000, 0.000000, 3, 1
3, 0.000000, 6, 1
2, 0.000000, 2, 3
1, 0.000000, 0.000000, 1
0.000000, 0.000000, 0.000000, 1
0.000000, 2, 0.000000, 1
5, 1, 0.000000, 4
2, 0.000000, 1, 0.000000
0.000000, 7, 1, 1
2, 3, 0.000000, 2
1, 4, 1, 1
2, 2, 2, 1
0.000000, 2, 0.000000, 0.000000
3, 1, 0.000000, 0.000000
2, 6, 1, 1
0.000000, 4, 0.000000, 1
1, 2, 1, 4
2, 2, 1, 0.000000
1, 2, 2, 1
2, 3, 2, 0.000000
2, 1, 1, 1
2, 1, 2, 1
3, 1, 1, 4
2, 2, 1, 2
2, 5, 0.000000, 4
0.000000, 2, 2, 2
1, 2, 4, 3
3, 6, 7, 3
2, 3, 1, 3
6, 4, 4, 9
1, 4, 6, 8
6, 3, 2, 2
4, 5, 5, 3
6, 8, 4, 1
10, 9, 12, 5
6, 10, 14, 5
8, 11, 10, 15
9, 10, 14, 12
14, 20, 15, 14
15, 17, 18, 23
27, 25, 23, 22
29, 26, 25, 31
36, 45, 42, 55
66, 141, 368, 855
1224, 1436, 1479, 1488
1479, 1413, 1323, 1142
1030, 834, 633, 527
337, 236, 131, 60
46, 27, 24, 23
21, 19, 8, 8
19, 13, 21, 13
12, 10, 10, 9
14, 6, 11, 14
12, 11, 5, 11
8, 7, 5, 8
8, 10, 4, 6
4, 3, 6, 3
5, 4, 5, 5
2, 3, 5, 4
4, 6, 4, 3
6, 2, 3, 5
4, 2, 1, 2
2, 4, 2, 2
1, 3, 4, 4
2, 3, 5, 4
2, 5, 2, 6
5, 4, 4, 2
0.000000, 1, 2, 1
7, 2, 3, 2
0.000000, 2, 3, 2
1, 3, 3, 1
2, 2, 1, 2
1, 1, 2, 1
2, 1, 3, 2
2, 3, 0.000000, 1
0.000000, 0.000000, 1, 1
1, 3, 3, 0.000000
1, 4, 1, 2
5, 1, 2, 1
1, 1, 2, 2
0.000000, 2, 2, 2
3, 0.000000, 1, 2
0.000000, 2, 1, 1
0.000000, 2, 0.000000, 1
1, 1, 1, 1
0.000000, 2, 1, 1
1, 1, 1, 3
0.000000, 3, 0.000000, 0.000000
1, 0.000000, 1, 1
0.000000, 1, 1, 0.000000
0.000000, 1, 0.000000, 2
1
*END

*EOF