Folder: mtex/data/PoleFigure (part 2)

File: Rigaku_xrd_111.asc
*TYPE		=  Raw
*CLASS		=  Polefig
*SAMPLE		=  111_al
*COMMENT	=  Alpha-R=15.000
*FNAME		=  111_Al_1570.raw
*DATE		=  15-Jan-13 12:19

*GROUP_COUNT	=  1
*GONIO		=  Ultima IV (185mm), 185
*ATTACHMENT	=  Multipurpose attachment 4 for Pole Fig.
*ASC		=  0, 0, 0.000000, 0.000000
*SLIT_NAME	=  0, DivSlit
*SLIT_NAME	=  1, SctSlit
*SLIT_NAME	=  2, RecSlit
*SLIT_NAME	=  3, DivH.L.Slit
*COUNTER	=  Scintillation counter, 0
*POS_FORMAT	=  0
*SCAN_AXIS	=  beta
*MEAS_MODE	=  Continuous Scanning
*TARGET		=  29
*XRAY_CHAR	=  K-ALPHA1
*WAVE_LENGTH1	=  1.54056
*WAVE_LENGTH2	=  1.5444
*THICKNESS	=  0, 0.000000
*MU		=  0, 0.000000
*SCAN_MODE	=  beta
*SPEED_DIM	=  sec./step
*XUNIT		=  deg.
*YUNIT		=  counts
*SCALE_MODE	=  1
*REP_COUNT	=  1
*SE_COUNT	=  0
*STD_MATERIAL	=  Unknown, Unknown, 0.000000, 0.000000, 0.000000, 0.000000, 0.000000, 0.000000
*LATT_CONS	=  0, Cubic, Unknown, 0.000000, 0.000000, 0.000000, 0.000000, 0.000000, 0.000000
*SEC_COUNT	=  31
*TSPEC_SIZE	=  0
*EXTRA_SIZE	=  0
*PF_MEASUR	=  Coaxial circle scan
*PF_DATATYPE	=  Integral intensity
*PF_METHOD	=  0, Unknown
*PF_METHOD	=  1, Schulz reflection method
*PF_PCOUNT	=  0, 0
*PF_PCOUNT	=  1, 31
*PF_ASTART	=  0, 15
*PF_ASTART	=  1, 15
*PF_ASTOP	=  0, 80
*PF_ASTOP	=  1, 90
*PF_ASTEP	=  0, 5
*PF_ASTEP	=  1, 2.5
*PF_ASPEED	=  0, 0.000000
*PF_ASPEED	=  1, 0.000000
*PF_GAMMA	=  0, 0.000000
*PF_GAMMA	=  1, 0.000000
*PF_2THANGLE	=  0, 0.000000
*PF_2THANGLE	=  1, 38.3845
*PF_2THSTART	=  0, 0.000000
*PF_2THSTART	=  1, 0.000000
*PF_2THSTOP	=  0, 0.000000
*PF_2THSTOP	=  1, 0.000000
*PF_2THSTEP	=  0, 0.000000
*PF_2THSTEP	=  1, 0.000000
*PF_ASPEED	=  0, 0.000000
*PF_ASPEED	=  1, 0.000000
*MEMO		=  Al

*BEGIN
*GROUP		=  0
*START		=  0.000000
*STOP		=  360
*STEP		=  2.5
*OFFSET		=
*SPEED		=  0.833333
*SLIT_SPEC	=  0, 1/2 deg., 0.87, 10
*SLIT_SPEC	=  1, 1/2 deg., 0.67, 20
*SLIT_SPEC	=  2, 0.3mm, 0.3, 20
*SLIT_SPEC	=  3, 2mm, 8, 2
*KV		=  40
*MA		=  40
*LOW		=  172.8
*HIGH		=  345.6
*CTEMPER	=  0, 0.000000
*CTEMPER	=  1, 0.000000
*CTEMPER	=  2, 0.000000
*PAREX		=  0, 0.000000
*PAREX		=  1, 0.000000
*PAREX		=  2, 0.000000
*PAREX		=  3, 0.000000
*PAREX		=  4, 0.000000
*PAREX		=  5, 0.000000
*PAREX		=  6, 0.000000
*PAREX		=  7, 0.000000
*PAREX		=  8, 0.000000
*PAREX		=  9, 0.000000
*PAREX		=  10, 0.000000
*PAREX		=  11, 0.000000
*PAREX		=  12, 0.000000
*PAREX		=  13, 0.000000
*PAREX		=  14, 0.000000
*PAREX		=  15, 0.000000
*FULL_SCALE	=  1000
*PF_AANGLE	=  15
*PF_BANGLE	=  0.000000
*INDEX		=  1, 1, 1
*COUNT		=  145
175, 202, 219, 267
257, 265, 267, 276
223, 241, 260, 224
182, 187, 164, 176
149, 144, 139, 151
144, 161, 149, 144
188, 199, 203, 244
245, 242, 296, 291
289, 301, 223, 235
209, 171, 203, 156
152, 175, 134, 135
121, 124, 152, 135
139, 162, 178, 219
200, 215, 240, 280
276, 261, 271, 268
223, 245, 204, 196
181, 172, 176, 186
169, 179, 176, 180
186, 178, 200, 194
232, 246, 233, 245
252, 264, 269, 202
207, 185, 174, 170
169, 146, 148, 162
185, 168, 162, 175
166, 190, 224, 194
233, 265, 268, 292
312, 345, 306, 335
256, 287, 265, 233
220, 185, 201, 152
209, 222, 182, 203
187, 215, 223, 246
263, 266, 255, 267
284, 315, 338, 301
287, 247, 264, 243
226, 217, 190, 177
204, 199, 222, 203
211
*END

*BEGIN
*GROUP		=  0
*START		=  0.000000
*STOP		=  360
*STEP		=  2.5
*OFFSET		=
*SPEED		=  0.833333
*SLIT_SPEC	=  0, 1/2 deg., 0.87, 10
*SLIT_SPEC	=  1, 1/2 deg., 0.67, 20
*SLIT_SPEC	=  2, 0.3mm, 0.3, 20
*SLIT_SPEC	=  3, 2mm, 8, 2
*KV		=  40
*MA		=  40
*LOW		=  172.8
*HIGH		=  345.6
*CTEMPER	=  0, 0.000000
*CTEMPER	=  1, 0.000000
*CTEMPER	=  2, 0.000000
*PAREX		=  0, 0.000000
*PAREX		=  1, 0.000000
*PAREX		=  2, 0.000000
*PAREX		=  3, 0.000000
*PAREX		=  4, 0.000000
*PAREX		=  5, 0.000000
*PAREX		=  6, 0.000000
*PAREX		=  7, 0.000000
*PAREX		=  8, 0.000000
*PAREX		=  9, 0.000000
*PAREX		=  10, 0.000000
*PAREX		=  11, 0.000000
*PAREX		=  12, 0.000000
*PAREX		=  13, 0.000000
*PAREX		=  14, 0.000000
*PAREX		=  15, 0.000000
*FULL_SCALE	=  1000
*PF_AANGLE	=  17.5
*PF_BANGLE	=  0.000000
*INDEX		=  1, 1, 1
*COUNT		=  145
277, 262, 276, 252
272, 305, 284, 307
263, 275, 239, 241
216, 216, 183, 203
183, 160, 184, 196
179, 171, 192, 179
183, 211, 218, 289
290, 303, 315, 344
326, 273, 252, 238
241, 204, 191, 225
189, 175, 172, 154
174, 160, 168, 196
180, 187, 184, 231
200, 241, 274, 311
353, 340, 329, 334
308, 285, 258, 223
221, 224, 206, 238
225, 211, 188, 204
231, 221, 249, 226
269, 302, 268, 269
259, 294, 279, 257
240, 221, 220, 206
197, 177, 172, 172
172, 158, 190, 188
219, 200, 238, 286
282, 305, 299, 353
394, 392, 373, 334
309, 307, 306, 303
271, 265, 260, 213
239, 228, 211, 217
244, 217, 240, 262
285, 297, 316, 343
313, 313, 338, 344
372, 343, 303, 280
285, 262, 257, 251
214, 221, 235, 250
252
*END

*BEGIN
*GROUP		=  0
*START		=  0.000000
*STOP		=  360
*STEP		=  2.5
*OFFSET		=
*SPEED		=  0.833333
*SLIT_SPEC	=  0, 1/2 deg., 0.87, 10
*SLIT_SPEC	=  1, 1/2 deg., 0.67, 20
*SLIT_SPEC	=  2, 0.3mm, 0.3, 20
*SLIT_SPEC	=  3, 2mm, 8, 2
*KV		=  40
*MA		=  40
*LOW		=  345.6
*HIGH		=  432
*CTEMPER	=  0, 0.000000
*CTEMPER	=  1, 0.000000
*CTEMPER	=  2, 0.000000
*PAREX		=  0, 0.000000
*PAREX		=  1, 0.000000
*PAREX		=  2, 0.000000
*PAREX		=  3, 0.000000
*PAREX		=  4, 0.000000
*PAREX		=  5, 0.000000
*PAREX		=  6, 0.000000
*PAREX		=  7, 0.000000
*PAREX		=  8, 0.000000
*PAREX		=  9, 0.000000
*PAREX		=  10, 0.000000
*PAREX		=  11, 0.000000
*PAREX		=  12, 0.000000
*PAREX		=  13, 0.000000
*PAREX		=  14, 0.000000
*PAREX		=  15, 0.000000
*FULL_SCALE	=  1000
*PF_AANGLE	=  20
*PF_BANGLE	=  0.000000
*INDEX		=  1, 1, 1
*COUNT		=  145
283, 299, 304, 301
345, 309, 323, 309
334, 263, 272, 277
240, 234, 190, 216
220, 183, 192, 189
212, 211, 188, 199
226, 232, 281, 256
308, 326, 365, 335
336, 321, 289, 284
285, 277, 231, 262
209, 192, 198, 187
188, 191, 173, 200
213, 232, 256, 272
293, 330, 349, 403
414, 436, 433, 407
364, 357, 321, 318
283, 248, 252, 253
222, 252, 259, 257
249, 274, 315, 283
290, 298, 335, 346
337, 322, 297, 278
290, 227, 219, 216
217, 212, 195, 197
197, 195, 210, 219
242, 246, 268, 274
323, 327, 340, 402
385, 354, 394, 373
408, 412, 342, 319
301, 287, 263, 241
270, 245, 256, 260
263, 249, 266, 317
309, 307, 311, 339
348, 373, 399, 387
367, 399, 335, 338
346, 302, 292, 286
247, 276, 297, 277
324
*END

*BEGIN
*GROUP		=  0
*START		=  0.000000
*STOP		=  360
*STEP		=  2.5
*OFFSET		=
*SPEED		=  0.833333
*SLIT_SPEC	=  0, 1/2 deg., 0.87, 10
*SLIT_SPEC	=  1, 1/2 deg., 0.67, 20
*SLIT_SPEC	=  2, 0.3mm, 0.3, 20
*SLIT_SPEC	=  3, 2mm, 8, 2
*KV		=  40
*MA		=  40
*LOW		=  432
*HIGH		=  518.4
*CTEMPER	=  0, 0.000000
*CTEMPER	=  1, 0.000000
*CTEMPER	=  2, 0.000000
*PAREX		=  0, 0.000000
*PAREX		=  1, 0.000000
*PAREX		=  2, 0.000000
*PAREX		=  3, 0.000000
*PAREX		=  4, 0.000000
*PAREX		=  5, 0.000000
*PAREX		=  6, 0.000000
*PAREX		=  7, 0.000000
*PAREX		=  8, 0.000000
*PAREX		=  9, 0.000000
*PAREX		=  10, 0.000000
*PAREX		=  11, 0.000000
*PAREX		=  12, 0.000000
*PAREX		=  13, 0.000000
*PAREX		=  14, 0.000000
*PAREX		=  15, 0.000000
*FULL_SCALE	=  1000
*PF_AANGLE	=  22.5
*PF_BANGLE	=  0.000000
*INDEX		=  1, 1, 1
*COUNT		=  145
324, 357, 357, 352
348, 314, 381, 301
308, 324, 285, 268
313, 241, 267, 218
235, 228, 225, 216
228, 218, 234, 247
261, 254, 297, 306
328, 355, 407, 374
405, 377, 355, 379
360, 321, 285, 276
262, 256, 222, 234
230, 237, 259, 270
247, 296, 303, 301
331, 337, 424, 454
458, 500, 486, 477
[...]
659, 618, 625, 611
614, 581, 603, 608
570, 583, 611, 621
586, 627, 602, 579
590, 589, 601, 561
607, 586, 560, 629
540, 552, 584, 576
559, 585, 598, 558
523, 617, 563, 569
599, 625, 567, 602
579, 572, 608, 618
583, 617, 564, 605
667, 585, 591, 598
561, 617, 587, 586
631, 666, 600, 602
679, 597, 592, 632
554, 609, 565, 613
613, 572, 587, 670
573, 611, 615, 589
647, 581, 662, 694
626, 631, 622, 647
644, 653, 619, 654
661, 610, 652, 609
655, 647, 642, 664
650, 631, 713, 648
680, 682, 658, 668
664, 674, 633, 647
695, 650, 645, 665
655, 616, 653, 660
675, 640, 659, 644
650, 658, 642, 655
600, 640, 642, 642
633
*END

*BEGIN
*GROUP		=  0
*START		=  0.000000
*STOP		=  360
*STEP		=  2.5
*OFFSET		=
*SPEED		=  0.833333
*SLIT_SPEC	=  0, 1/2 deg., 0.87, 10
*SLIT_SPEC	=  1, 1/2 deg., 0.67, 20
*SLIT_SPEC	=  2, 0.3mm, 0.3, 20
*SLIT_SPEC	=  3, 2mm, 8, 2
*KV		=  40
*MA		=  40
*LOW		=  2160
*HIGH		=  1555.2
*CTEMPER	=  0, 0.000000
*CTEMPER	=  1, 0.000000
*CTEMPER	=  2, 0.000000
*PAREX		=  0, 0.000000
*PAREX		=  1, 0.000000
*PAREX		=  2, 0.000000
*PAREX		=  3, 0.000000
*PAREX		=  4, 0.000000
*PAREX		=  5, 0.000000
*PAREX		=  6, 0.000000
*PAREX		=  7, 0.000000
*PAREX		=  8, 0.000000
*PAREX		=  9, 0.000000
*PAREX		=  10, 0.000000
*PAREX		=  11, 0.000000
*PAREX		=  12, 0.000000
*PAREX		=  13, 0.000000
*PAREX		=  14, 0.000000
*PAREX		=  15, 0.000000
*FULL_SCALE	=  1000
*PF_AANGLE	=  87.5
*PF_BANGLE	=  0.000000
*INDEX		=  1, 1, 1
*COUNT		=  145
579, 607, 549, 600
578, 592, 570, 584
565, 590, 540, 579
579, 550, 557, 595
555, 620, 611, 582
604, 533, 589, 580
598, 595, 589, 601
627, 595, 588, 606
579, 578, 587, 568
621, 577, 615, 613
610, 584, 607, 638
611, 615, 614, 596
618, 604, 612, 657
655, 618, 592, 636
629, 612, 666, 660
685, 609, 700, 636
672, 640, 621, 682
629, 678, 633, 671
638, 654, 679, 650
677, 666, 669, 629
650, 690, 650, 670
650, 735, 627, 634
648, 651, 700, 657
652, 658, 686, 664
614, 632, 656, 628
654, 616, 633, 641
671, 675, 640, 660
595, 631, 631, 579
664, 716, 641, 596
596, 608, 651, 621
612, 596, 650, 650
596, 617, 586, 623
613, 605, 562, 599
553, 647, 615, 594
626, 632, 590, 596
650, 612, 576, 559
560
*END

*BEGIN
*GROUP		=  0
*START		=  0.000000
*STOP		=  360
*STEP		=  2.5
*OFFSET		=
*SPEED		=  0.833333
*SLIT_SPEC	=  0, 1/2 deg., 0.87, 10
*SLIT_SPEC	=  1, 1/2 deg., 0.67, 20
*SLIT_SPEC	=  2, 0.3mm, 0.3, 20
*SLIT_SPEC	=  3, 2mm, 8, 2
*KV		=  40
*MA		=  40
*LOW		=  1900.8
*HIGH		=  1900.8
*CTEMPER	=  0, 0.000000
*CTEMPER	=  1, 0.000000
*CTEMPER	=  2, 0.000000
*PAREX		=  0, 0.000000
*PAREX		=  1, 0.000000
*PAREX		=  2, 0.000000
*PAREX		=  3, 0.000000
*PAREX		=  4, 0.000000
*PAREX		=  5, 0.000000
*PAREX		=  6, 0.000000
*PAREX		=  7, 0.000000
*PAREX		=  8, 0.000000
*PAREX		=  9, 0.000000
*PAREX		=  10, 0.000000
*PAREX		=  11, 0.000000
*PAREX		=  12, 0.000000
*PAREX		=  13, 0.000000
*PAREX		=  14, 0.000000
*PAREX		=  15, 0.000000
*FULL_SCALE	=  1000
*PF_AANGLE	=  90
*PF_BANGLE	=  0.000000
*INDEX		=  1, 1, 1
*COUNT		=  145
653, 636, 657, 606
598, 629, 659, 581
638, 658, 658, 595
600, 617, 663, 666
648, 638, 662, 616
666, 666, 679, 683
707, 702, 661, 641
626, 654, 671, 686
643, 732, 674, 693
717, 638, 698, 711
685, 666, 635, 679
693, 716, 751, 684
749, 777, 739, 769
738, 746, 769, 760
778, 810, 756, 783
798, 823, 778, 802
830, 766, 810, 807
845, 817, 771, 776
806, 800, 784, 835
783, 800, 781, 846
808, 757, 775, 812
766, 859, 793, 795
802, 800, 775, 739
746, 758, 747, 768
762, 773, 781, 752
737, 685, 738, 716
710, 676, 651, 699
692, 693, 721, 713
738, 647, 707, 660
642, 645, 651, 706
591, 588, 645, 589
612, 639, 640, 644
632, 634, 681, 644
609, 616, 641, 644
608, 604, 612, 612
581, 601, 571, 613
594
*END

*EOF